Time_s_,Acc_x_m_s_2_,Acc_y_m_s_2_,Acc_z_m_s_2_,Gyro_x_1_s_,Gyro_y_1_s_,Gyro_z_1_s_
0,-0.13214342,-0.08294061,-0.16741803,-0.17441246,-1.4870472,0.52939945
0.002,-0.14856431,-0.066773385,-0.11814172,-0.16464034,-1.4717634,0.5591561
0.004,-0.16826451,-0.04851469,-0.07092255,-0.15330252,-1.4534161,0.59206325
0.006,-0.19257995,-0.027762413,-0.025815599,-0.140125,-1.4314232,0.628367
0.008,-0.22153752,-0.0044225752,0.017332677,-0.12484431,-1.4051208,0.668267
0.01,-0.25586018,0.022307448,0.05733169,-0.10718405,-1.3738015,0.71188235
0.012,-0.2963672,0.05338338,0.093160786,-0.08689171,-1.3367852,0.759238
0.014,-0.34353998,0.08945142,0.12374096,-0.06375769,-1.2934725,0.8102379
0.016,-0.39796874,0.13094087,0.14825529,-0.037635714,-1.2434361,0.8646648
0.018,-0.46021345,0.17805554,0.16594368,-0.008444682,-1.186485,0.9221659
0.02,-0.53064877,0.23107319,0.1763489,0.02385363,-1.1226529,0.9822937
0.022,-0.6097572,0.29020926,0.1788175,0.059261613,-1.0522374,1.0445224
0.024,-0.6974622,0.3554388,0.17233992,0.09775017,-0.97580254,1.1082276
0.026,-0.7940131,0.42699695,0.15646586,0.13918707,-0.89425457,1.172662
0.028,-0.8995458,0.5048461,0.13091809,0.18411064,-0.80732405,1.2385345
0.03,-1.0137227,0.5884864,0.09648339,0.23147932,-0.71756154,1.3027273
0.032,-1.1359478,0.67721725,0.05399009,0.28114516,-0.6258472,1.3644131
0.034,-1.2657584,0.7701478,0.0043890327,0.33285165,-0.5332024,1.4226016
0.036,-1.4028873,0.866383,-0.049455702,0.38618723,-0.44079092,1.4762506
0.038,-1.5456089,0.9639238,-0.104875,0.4405466,-0.34989125,1.5244098
0.04,-1.692446,1.0608001,-0.1614565,0.4951023,-0.26190567,1.5662773
0.042,-1.8416201,1.1551552,-0.21854983,0.54874915,-0.17845422,1.6011373
0.044,-1.98984,1.2446836,-0.27523986,0.60019696,-0.101181686,1.6284432
0.046,-2.1356118,1.3273759,-0.32939565,0.6481019,-0.0315997,1.6479931
0.048,-2.277176,1.40093,-0.37997076,0.691128,0.029054224,1.6599568
0.05,-2.4117353,1.4631654,-0.4254505,0.7280658,0.079963505,1.6649218
0.052,-2.5388885,1.5132153,-0.46282908,0.7579815,0.12095493,1.663832
0.054,-2.6541588,1.549122,-0.49142474,0.78029114,0.15255922,1.6578653
0.056,-2.7579887,1.5716873,-0.5099635,0.79481804,0.17590564,1.6483893
0.058,-2.8456159,1.577764,-0.51957357,0.8017646,0.19258726,1.6367927
0.06,-2.9150336,1.5661505,-0.5210792,0.801639,0.20447129,1.6244025
0.062,-2.9647436,1.5360835,-0.5150734,0.7952616,0.21350771,1.6124449
0.064,-2.9934325,1.4878988,-0.50280035,0.78360146,0.22148454,1.6019384
0.066,-3.0014782,1.4229451,-0.48554504,0.76767206,0.2296853,1.5936208
0.068,-2.988171,1.3425195,-0.46388033,0.74845874,0.2389546,1.5880117
0.07,-2.9537902,1.2485025,-0.43958202,0.7269894,0.24996561,1.585459
0.072,-2.8985193,1.1429172,-0.41555148,0.70416486,0.2627371,1.5860403
0.074,-2.8230343,1.0277383,-0.39484984,0.6807356,0.276743,1.5896201
0.076,-2.7286863,0.90507,-0.37969184,0.65739936,0.29131824,1.5959175
0.078,-2.617136,0.7771363,-0.37200654,0.63469726,0.30569464,1.6044332
0.08,-2.489869,0.6459606,-0.37343633,0.6129652,0.31893218,1.6144762
0.082,-2.349133,0.5139026,-0.3855427,0.5922842,0.3298983,1.6252438
0.084,-2.1965566,0.38249326,-0.40891105,0.57257503,0.3376689,1.6359463
0.086,-2.0339642,0.25322032,-0.44398993,0.5535312,0.34131098,1.6456683
0.088,-1.8635263,0.12775147,-0.49029648,0.5346116,0.3396154,1.6533468
0.09,-1.6875536,0.0075942874,-0.5464106,0.51512605,0.3311314,1.6580567
0.092,-1.5082805,-0.10618633,-0.6102512,0.49431464,0.31407213,1.6590886
0.094,-1.3274041,-0.21306783,-0.679265,0.47134393,0.28638023,1.655901
0.096,-1.1465433,-0.31294584,-0.75081205,0.44543242,0.24584758,1.6482158
0.098,-0.9674542,-0.40593913,-0.821483,0.415868,0.19029498,1.6359438
0.1,-0.79209656,-0.49215272,-0.88740736,0.3821206,0.11800277,1.6191006
0.102,-0.6219335,-0.5719981,-0.94503355,0.3438705,0.02802366,1.5977491
0.104,-0.4582037,-0.6458413,-0.9910002,0.3009693,-0.07960701,1.571972
0.106,-0.30208254,-0.71419924,-1.0238043,0.25351655,-0.2036742,1.541965
0.108,-0.15440136,-0.7772847,-1.0410311,0.20189634,-0.34157154,1.5081509
0.11,-0.016157389,-0.83551675,-1.0405445,0.14680517,-0.48935816,1.4711963
0.112,0.111625135,-0.88918,-1.0208576,0.0893285,-0.6419725,1.43202
0.114,0.22860992,-0.9385575,-0.981531,0.03094066,-0.793594,1.3917328
0.116,0.33441162,-0.9839199,-0.9227394,-0.026566217,-0.93807244,1.3516273
0.118,0.42840463,-1.0255065,-0.8456805,-0.081101194,-1.0693896,1.3131051
0.12,0.51025236,-1.0637356,-0.75150406,-0.13045038,-1.1820371,1.2774966
0.122,0.57959884,-1.0989186,-0.6418656,-0.1725104,-1.2716155,1.245822
0.124,0.6361568,-1.130899,-0.5184876,-0.20559907,-1.3352902,1.2187055
0.126,0.6797153,-1.1593727,-0.3840075,-0.22850564,-1.3714992,1.1964557
0.128,0.7101355,-1.1838818,-0.24179602,-0.24061736,-1.3802423,1.1789595
0.13,0.7273453,-1.2041144,-0.09551567,-0.24199522,-1.363191,1.1657538
0.132,0.731318,-1.2198162,0.051790483,-0.23322237,-1.3232692,1.1562319
0.134,0.7219114,-1.2305864,0.1972453,-0.21527624,-1.2641939,1.1496415
0.136,0.69951975,-1.2363155,0.33799854,-0.18944511,-1.1902881,1.145107
0.138,0.66456425,-1.2367908,0.47153214,-0.15719631,-1.1062303,1.1416957
0.14,0.6171373,-1.2314236,0.59512275,-0.11986959,-1.0162169,1.1386973
0.142,0.55740446,-1.2198548,0.7070001,-0.07857546,-0.92363745,1.1356381
0.144,0.4851021,-1.2015378,0.8055825,-0.03421139,-0.83118606,1.1320069
0.146,0.39908546,-1.1754458,0.8863273,0.012547391,-0.74076,1.1272953
0.148,0.29874665,-1.1403332,0.94627726,0.061255246,-0.6534858,1.121193
0.15,0.18501754,-1.0958242,0.9870987,0.11158134,-0.56983006,1.1135033
0.152,0.06115503,-1.0427818,1.0126556,0.16321073,-0.48989403,1.1040968
0.154,-0.07378419,-0.9805785,1.0247787,0.21577996,-0.4136396,1.0928645
0.156,-0.21857573,-0.90921116,1.0223788,0.2689574,-0.3408572,1.079725
0.158,-0.3726689,-0.82845587,1.0061063,0.32240292,-0.27123332,1.0645535
0.16,-0.5363512,-0.7385699,0.97721034,0.37572077,-0.20457187,1.0470966
0.162,-0.7071886,-0.64091396,0.93514884,0.42848027,-0.1408306,1.0269725
0.164,-0.8863426,-0.5357061,0.8815001,0.48025727,-0.080019444,1.0037309
0.166,-1.0722086,-0.42389518,0.8166959,0.5306569,-0.022209972,0.9769654
0.168,-1.2641743,-0.30568773,0.73980105,0.5793757,0.032553285,0.9463078
0.17,-1.461467,-0.18098629,0.6509,0.62622833,0.08430314,0.9114138
0.172,-1.6626382,-0.050307572,0.55055296,0.67112935,0.13321096,0.87206525
0.174,-1.8666266,0.085413694,0.44085392,0.714151,0.17958769,0.82827234
0.176,-2.0712533,0.22465605,0.32380274,0.75551367,0.22378075,0.78026485
0.178,-2.27539,0.3660962,0.20061159,0.79536664,0.26579213,0.7284291
0.18,-2.477611,0.5080216,0.073551,0.8336226,0.3052274,0.6732359
0.182,-2.6765304,0.64849997,-0.05395198,0.86992216,0.34148782,0.61524975
0.184,-2.8703887,0.7857076,-0.17808616,0.9037858,0.37406427,0.5551173
0.186,-3.0573728,0.91769314,-0.2958694,0.93457717,0.40222198,0.4935102
0.188,-3.235624,1.0427201,-0.4039628,0.9613699,0.4246212,0.43113175
0.19,-3.403438,1.1589831,-0.4988954,0.9830624,0.43970832,0.3686751
0.192,-3.5581064,1.2639359,-0.5765053,0.99838114,0.44590324,0.30671394
0.194,-3.697514,1.3555688,-0.63367134,1.00584,0.4416579,0.2456421
0.196,-3.8197098,1.4315033,-0.6673055,1.0038902,0.4257543,0.18575524
0.198,-3.9230213,1.4891135,-0.67547387,0.9911361,0.3975491,0.1272502
0.2,-4.005579,1.5258723,-0.6571663,0.9665241,0.3571072,0.07020679
0.202,-4.0656676,1.5397044,-0.6113564,0.9296237,0.30551842,0.014614403
0.204,-4.102028,1.5289687,-0.5369132,0.8807777,0.24510083,-0.039536297
0.206,-4.1137104,1.4926126,-0.43351942,0.8211701,0.17938982,-0.092209816
0.208,-4.1005,1.4299067,-0.30231965,0.7527808,0.11282496,-0.14327851
0.21,-4.062316,1.3404149,-0.14548326,0.67821205,0.05027628,-0.1924604
0.212,-3.9996753,1.2243017,0.034326196,0.6004112,-0.0034631938,-0.2393196
0.214,-3.9132438,1.0821757,0.2343505,0.5222951,-0.0441878,-0.28328162
0.216,-3.8042846,0.91541505,0.4510852,0.44647893,-0.06877848,-0.3237065
0.218,-3.6743774,0.7256887,0.67984754,0.37501335,-0.07554035,-0.35994884
0.22,-3.5255733,0.51563597,0.915404,0.30927292,-0.064293146,-0.39146447
0.222,-3.360645,0.28874445,1.1529595,0.24994747,-0.036251858,-0.4179051
0.224,-3.1822052,0.04858631,1.3881527,0.19712558,0.0063096154,-0.4391357
0.226,-2.9932876,-0.20086491,1.6166945,0.15042973,0.06048359,-0.45526147
0.228,-2.797266,-0.4554129,1.834616,0.10918315,0.12317304,-0.46662408
0.23,-2.5960107,-0.71115196,2.0377703,0.07254649,0.19145864,-0.4736781
0.232,-2.3921447,-0.96385616,2.222871,0.039773945,0.26308486,-0.47692028
0.234,-2.1882696,-1.2091594,2.3866475,0.010264072,0.3364181,-0.47686183
0.236,-1.9867415,-1.443229,2.52683,-0.016549747,0.4102417,-0.47402892
0.238,-1.7905464,-1.6624327,2.6411765,-0.04130065,0.48360294,-0.46898484
0.24,-1.6018041,-1.8637018,2.7275853,-0.06449835,0.556136,-0.46229446
0.242,-1.4224019,-2.0440826,2.7829754,-0.086406484,0.62804884,-0.45452976
0.244,-1.2546234,-2.2007012,2.805502,-0.10715479,0.6995745,-0.44632715
0.246,-1.1010921,-2.3309484,2.7940426,-0.12667044,0.77092284,-0.43833584
0.248,-0.96364385,-2.4327173,2.7486856,-0.14463474,0.8423091,-0.43115872
0.25,-0.84317553,-2.504802,2.6715405,-0.16061136,0.91378224,-0.42539632
0.252,-0.7408295,-2.546461,2.5656216,-0.17413083,0.985241,-0.42153686
0.254,-0.6571242,-2.5575728,2.4336197,-0.18474588,1.0564718,-0.419867
0.256,-0.59211314,-2.5385838,2.2787027,-0.19211707,1.1269841,-0.4204343
0.258,-0.5475089,-2.4894295,2.1025476,-0.19606158,1.1960392,-0.42307988
0.26,-0.52555734,-2.4098117,1.9048786,-0.19658485,1.2625399,-0.42736328
0.262,-0.52964973,-2.2992759,1.6841902,-0.1938228,1.3252404,-0.43266654
0.264,-0.5593074,-2.1591995,1.4425173,-0.18799284,1.3829868,-0.43836617
0.266,-0.6139995,-1.9911385,1.1845436,-0.17936456,1.4347827,-0.4439116
0.268,-0.69297135,-1.7970486,0.91465706,-0.1682077,1.4798464,-0.44880822
0.27,-0.7954902,-1.5789973,0.6362821,-0.15483987,1.5177252,-0.45248756
0.272,-0.92095304,-1.3392923,0.3531779,-0.1395697,1.5482957,-0.45437607
0.274,-1.0681304,-1.0805364,0.06942928,-0.12277329,1.5717111,-0.45403206
0.276,-1.2347108,-0.8059415,-0.21011826,-0.10484266,1.5885377,-0.45122883
0.278,-1.4177443,-0.5190839,-0.48044854,-0.08621135,1.5996813,-0.44602147
0.28,-1.6139486,-0.22389877,-0.7375766,-0.06737524,1.606233,-0.43875733
0.282,-1.8197824,0.07555008,-0.9791178,-0.0488829,1.6094637,-0.4300421
0.284,-2.031085,0.3747084,-1.2032572,-0.031217694,1.610817,-0.42063418
0.286,-2.2432451,0.668962,-1.4080887,-0.014787734,1.6115263,-0.41126266
0.288,-2.4514897,0.9537715,-1.5915766,3.504753e-05,1.6123292,-0.40253478
0.29,-2.6505587,1.2248178,-1.751709,0.012952566,1.6134119,-0.39496404
0.292,-2.8353553,1.4780003,-1.8870822,0.023649871,1.6143987,-0.38895458
0.294,-3.0010762,1.7094643,-1.9972615,0.0316146,1.6143562,-0.38486567
0.296,-3.1428452,1.9154509,-2.0818765,0.036063433,1.6119689,-0.38303038
0.298,-3.2563848,2.0926375,-2.1415646,0.03592187,1.6057037,-0.38373905
0.3,-3.3382127,2.238275,-2.177391,0.02992028,1.5940778,-0.38725117
0.302,-3.385651,2.3505692,-2.1914322,0.016852736,1.5759317,-0.39383423
0.304,-3.3964903,2.4284372,-2.1858697,-0.004124522,1.5506089,-0.4037019
0.306,-3.369228,2.4717784,-2.1631603,-0.03317836,1.5180457,-0.4169375
0.308,-3.302102,2.4810247,-2.1258938,-0.06958473,1.4787416,-0.43347502
0.31,-3.194977,2.4573245,-2.076894,-0.11171001,1.4337088,-0.45314902
0.312,-3.04832,2.402388,-2.0198836,-0.15714946,1.3843372,-0.47561434
0.314,-2.863779,2.3188055,-1.9591469,-0.20304441,1.3323977,-0.5004057
0.316,-2.6432056,2.20938,-1.8986342,-0.24655452,1.2797642,-0.5268154
0.318,-2.3884964,2.077549,-1.8417822,-0.28528592,1.228125,-0.55384636
0.32,-2.1024811,1.9269607,-1.7915769,-0.31755552,1.1789329,-0.58031136
0.322,-1.7883658,1.7616687,-1.7510166,-0.34259394,1.1333078,-0.605038
0.324,-1.4498479,1.5857394,-1.7234331,-0.3605333,1.0919354,-0.62703884
0.326,-1.0907744,1.4032484,-1.711633,-0.3722719,1.0550926,-0.64549154
0.328,-0.71450174,1.218135,-1.7176124,-0.37918577,1.0226655,-0.65971136
0.33,-0.3246855,1.0340419,-1.7429982,-0.3828846,0.9939811,-0.6692419
0.332,0.07548785,0.8539652,-1.7892691,-0.3849505,0.96794134,-0.67400014
0.334,0.4822266,0.68103594,-1.8573169,-0.38671255,0.94318485,-0.6742417
0.336,0.8922254,0.5176505,-1.9472318,-0.3892098,0.91813254,-0.67057335
0.338,1.3014628,0.3663552,-2.0586169,-0.39326888,0.8910953,-0.6639005
0.34,1.7049472,0.22943561,-2.1902232,-0.39950433,0.86064285,-0.6553034
0.342,2.0991628,0.10836109,-2.3413005,-0.40830702,0.8257314,-0.64575034
0.344,2.4806678,0.004179135,-2.510632,-0.41992983,0.7855952,-0.63594925
0.346,2.8465896,-0.082236305,-2.6966066,-0.43443793,0.7397908,-0.62634176
0.348,3.1947482,-0.15045828,-2.8965697,-0.45164213,0.6882048,-0.6170649
0.35,3.5220282,-0.2003051,-3.1080267,-0.47115377,0.63090235,-0.60806966
0.352,3.8258529,-0.23192093,-3.3277266,-0.4924419,0.5680168,-0.59919655
0.354,4.103879,-0.24604228,-3.5533433,-0.5148983,0.49965906,-0.5902573
0.356,4.354803,-0.24365842,-3.783095,-0.5379754,0.42591807,-0.5810795
0.358,4.5766683,-0.22568884,-4.0156074,-0.5612186,0.34682336,-0.5715229
0.36,4.7671895,-0.19283986,-4.250135,-0.5843134,0.26229772,-0.561539
0.362,4.924859,-0.14581901,-4.4852285,-0.607072,0.17213464,-0.5511374
0.364,5.048876,-0.085724324,-4.7172866,-0.62937546,0.076031774,-0.5403665
0.366,5.13888,-0.013893843,-4.9413223,-0.6511532,-0.026356906,-0.52937347
0.368,5.194658,0.068258464,-5.1526213,-0.6723418,-0.13533431,-0.5184072
0.37,5.216899,0.15887475,-5.346902,-0.6928532,-0.25103185,-0.5078042
0.372,5.206583,0.25629956,-5.520631,-0.7125276,-0.37329254,-0.4979205
0.374,5.1655335,0.35868075,-5.6708813,-0.7311429,-0.5015112,-0.48911363
0.376,5.095587,0.46436393,-5.795346,-0.74841094,-0.6346257,-0.4816761
0.378,4.998433,0.57199514,-5.8920965,-0.7639655,-0.7710928,-0.47577518
0.38,4.8763957,0.68035865,-5.9593115,-0.77734035,-0.9088789,-0.47139007
0.382,4.731514,0.78825814,-5.9946938,-0.78797334,-1.0455323,-0.4683141
0.384,4.565988,0.8942552,-5.9963326,-0.7952216,-1.1782465,-0.46616882
0.386,4.382285,0.99689,-5.9627194,-0.7983758,-1.3039739,-0.46436736
0.388,4.1830063,1.0948619,-5.893142,-0.7967123,-1.4195952,-0.46221754
0.39,3.9709146,1.1870137,-5.7876644,-0.78953683,-1.522101,-0.45894173
0.392,3.748839,1.2722776,-5.646817,-0.77621996,-1.608751,-0.4537066
0.394,3.5192747,1.3502343,-5.471944,-0.7562728,-1.6772646,-0.44571567
0.396,3.2846966,1.4206764,-5.264942,-0.72939396,-1.7259011,-0.43432412
0.398,3.0470264,1.4838111,-5.028164,-0.695497,-1.7535505,-0.41908607
0.4,2.8082438,1.5397221,-4.7640443,-0.65475345,-1.7597942,-0.39978027
0.402,2.569919,1.588725,-4.4754558,-0.6075896,-1.7448872,-0.37646037
0.404,2.333964,1.6310827,-4.165402,-0.5546737,-1.709744,-0.34939736
0.406,2.1014655,1.6672219,-3.837325,-0.49691543,-1.6559362,-0.3190741
0.408,1.8737602,1.6974127,-3.494706,-0.4354061,-1.5855135,-0.28613412
0.41,1.6521711,1.7219895,-3.1412518,-0.37133735,-1.5008714,-0.25129518
0.412,1.437396,1.7415552,-2.7802916,-0.3059757,-1.404641,-0.21535361
0.414,1.2301018,1.7566825,-2.4146457,-0.2405985,-1.2995776,-0.17909992
0.416,1.0306442,1.7678878,-2.0471115,-0.17644921,-1.1883974,-0.14330557
0.418,0.8387991,1.7758844,-1.6804667,-0.11467901,-1.0737185,-0.108664125
0.42,0.6547884,1.7813549,-1.317388,-0.05628234,-0.9579937,-0.07580525
0.422,0.47881866,1.7847614,-0.9602405,-0.0020766556,-0.8434266,-0.045287132
0.424,0.31113958,1.7864913,-0.61113065,0.047316223,-0.73196137,-0.017647445
0.426,0.15185887,1.7869365,-0.2719689,0.09148531,-0.6252144,0.006622359
0.428,0.0008124709,1.7864642,0.055485666,0.13023973,-0.52452874,0.027100764
0.43,-0.14230126,1.7856963,0.36970457,0.16358441,-0.4309049,0.043416962
0.432,-0.2774396,1.785214,0.669243,0.19167808,-0.34501305,0.055242244
0.434,-0.40479267,1.7855282,0.9528764,0.21477142,-0.26721007,0.062320005
0.436,-0.52431315,1.7871358,1.2195467,0.23320499,-0.19758707,0.064516276
0.438,-0.6362414,1.7905182,1.4681123,0.24735066,-0.13600059,0.061863262
0.44,-0.74055076,1.7961694,1.6976695,0.25761628,-0.082150675,0.054576024
0.442,-0.8372425,1.80461,1.9072101,0.26442432,-0.035670303,0.04300505
0.444,-0.9262643,1.8163012,2.095777,0.26818228,0.0038142577,0.027592257
0.446,-1.0072664,1.8316752,2.2623246,0.26936525,0.036754124,0.008842528
0.448,-1.0795733,1.850812,2.4061055,0.2684993,0.063621916,-0.012731701
0.45,-1.1424112,1.8736879,2.5264618,0.26609656,0.08477917,-0.036686517
0.452,-1.1953804,1.9004252,2.6232526,0.2626215,0.10053075,-0.06265828
0.454,-1.2382557,1.9309094,2.6966658,0.25850752,0.11115447,-0.09038812
0.456,-1.2709895,1.9652581,2.7470698,0.25413406,0.116902746,-0.11973986
0.458,-1.2931098,2.0032597,2.7751043,0.24979097,0.118032455,-0.15069772
0.46,-1.304003,2.0447397,2.7816768,0.24571781,0.11488573,-0.18329556
0.462,-1.3031778,2.0890346,2.7678223,0.24208352,0.10787679,-0.21756425
0.464,-1.2899354,2.1354342,2.7347307,0.23900303,0.09754878,-0.2534807
0.466,-1.2641189,2.1833754,2.6838064,0.2366244,0.0846322,-0.29089084
0.468,-1.2255273,2.2322192,2.6166317,0.23514785,0.070022605,-0.32948506
0.47,-1.1738874,2.2812767,2.5349095,0.23482947,0.054705415,-0.36881456
0.472,-1.1090903,2.329907,2.4402661,0.23598137,0.039769053,-0.40835208
0.474,-1.0314412,2.3776212,2.334194,0.23895489,0.02636242,-0.4474885
0.476,-0.94150126,2.4237378,2.218457,0.2440727,0.015570033,-0.48561674
0.478,-0.83978665,2.4677076,2.0951867,0.25161728,0.008377422,-0.52215225
0.48,-0.72733235,2.5092545,1.9663414,0.26182067,0.005599968,-0.55659723
0.482,-0.6055223,2.5481954,1.833904,0.27481598,0.007815979,-0.58854973
0.484,-0.4762485,2.5847425,1.6996057,0.29062197,0.015302569,-0.61772853
0.486,-0.34136128,2.6191196,1.5653291,0.3091117,0.027985096,-0.64402086
0.488,-0.20240521,2.6512952,1.4328637,0.3300046,0.045415595,-0.6674888
0.49,-0.061534166,2.6812177,1.3040344,0.35286185,0.066829726,-0.68834424
0.492,0.079472065,2.7089243,1.1802709,0.37715527,0.0911716,-0.7069101
0.494,0.2183851,2.734878,1.0626636,0.40228677,0.117209315,-0.72357684
0.496,0.353024,2.7596278,0.95190126,0.427662,0.14361653,-0.7387089
0.498,0.48146582,2.7836823,0.8488054,0.45275968,0.16909473,-0.75261986
0.5,0.6016116,2.807521,0.7541882,0.47712156,0.19239964,-0.7656066
0.502,0.7117256,2.8315785,0.6685292,0.5004305,0.21250853,-0.7779069
0.504,0.81025946,2.8561666,0.59259975,0.52252233,0.22870971,-0.78968555
0.506,0.89584225,2.8813014,0.5271047,0.5433975,0.24066502,-0.80103886
0.508,0.9677483,2.9068863,0.47264045,0.5631408,0.24836694,-0.8120308
0.51,1.025319,2.9328017,0.4292881,0.581919,0.2521078,-0.8226746
0.512,1.0683722,2.9588227,0.3971297,0.5999525,0.25243652,-0.8329397
0.514,1.0966504,2.9848995,0.3760416,0.61743253,0.2500378,-0.8427907
0.516,1.1107674,3.0108442,0.3660267,0.6345019,0.24562797,-0.85220015
0.518,1.1111499,3.036592,0.367054,0.6512581,0.23986901,-0.86117566
0.52,1.0985548,3.0619223,0.37899196,0.6677154,0.23332849,-0.8697502
0.522,1.0743895,3.0863128,0.40149957,0.68382895,0.22644004,-0.8779842
0.524,1.0397909,3.109338,0.43383664,0.6995316,0.21949022,-0.8859551
0.526,0.99621457,3.1305408,0.47550792,0.7147583,0.21264243,-0.89371544
0.528,0.94500005,3.149575,0.5262815,0.72946465,0.20596817,-0.90129733
0.53,0.8872595,3.1663227,0.58574355,0.7436583,0.19955283,-0.9086985
0.532,0.82450384,3.1807985,0.6536692,0.7574108,0.1935347,-0.91589355
0.534,0.7580506,3.1929169,0.7295334,0.77081215,0.1881337,-0.9228351
0.536,0.68895054,3.2027462,0.8125764,0.7839991,0.18368673,-0.9294708
0.538,0.6187284,3.209919,0.9018996,0.79712313,0.18063895,-0.9357226
0.54,0.54858613,3.2142825,0.9963787,0.81035024,0.1794982,-0.9415015
0.542,0.47922575,3.2156985,1.0948384,0.82384163,0.1807683,-0.94672143
0.544,0.41165638,3.2140641,1.1962211,0.83771753,0.18487641,-0.9513289
0.546,0.34628773,3.2095742,1.2996986,0.8520558,0.19212268,-0.95531464
0.548,0.28364694,3.2023933,1.4044917,0.86689955,0.20263912,-0.9587227
0.55,0.22398102,3.1926126,1.5096624,0.8822555,0.2163879,-0.9616308
0.552,0.16731024,3.1803465,1.6142387,0.8980979,0.23313792,-0.964136
0.554,0.11373317,3.1656473,1.717376,0.91438377,0.252514,-0.9663228
0.556,0.06292689,3.1487365,1.8184863,0.9310774,0.27404147,-0.96824735
0.558,0.014561057,3.1296163,1.916867,0.9481665,0.297235,-0.96991354
0.56,-0.03187263,3.108448,2.0119786,0.96564394,0.32160878,-0.97129273
0.562,-0.07670033,3.0852573,2.1028829,0.9835433,0.34671628,-0.9722975
0.564,-0.12010276,3.0599356,2.1890874,1.0018773,0.37221205,-0.9728066
0.566,-0.16236353,3.0324228,2.269917,1.020683,0.3978762,-0.97269666
0.568,-0.2040304,3.0027895,2.3448684,1.0400081,0.4235728,-0.9718257
0.57,-0.2455616,2.9708807,2.4135342,1.0599113,0.449262,-0.97003824
0.572,-0.28719342,2.936747,2.4755306,1.0804491,0.47496545,-0.96716046
0.574,-0.32911825,2.9003887,2.5305724,1.1016779,0.50076663,-0.96304727
0.576,-0.371675,2.8617191,2.5782864,1.1236377,0.5268496,-0.9575913
0.578,-0.41489422,2.8207202,2.6183443,1.1463339,0.55349,-0.95071733
0.58,-0.45877457,2.7774465,2.6503525,1.1697137,0.5810233,-0.9424089
0.582,-0.50307393,2.7318258,2.673839,1.193683,0.60983795,-0.93269503
0.584,-0.54774785,2.6839392,2.6881537,1.2181301,0.6403496,-0.9216517
0.586,-0.5925138,2.6340408,2.6923301,1.2429153,0.67298937,-0.90940547
0.588,-0.6375499,2.5823712,2.6854844,1.2679281,0.7081638,-0.8961259
0.59,-0.6829363,2.5295684,2.667024,1.2931069,0.7462348,-0.88197696
0.592,-0.72840726,2.4761696,2.6364765,1.3184552,0.78750765,-0.8671354
0.594,-0.77334833,2.4225485,2.5935583,1.3440449,0.8322129,-0.85174
0.596,-0.81731105,2.369145,2.537708,1.3700181,0.88056874,-0.8358842
0.598,-0.8598628,2.3165553,2.4684305,1.3965812,0.9327636,-0.819608
0.6,-0.9005736,2.2656908,2.3850996,1.4239801,0.98897195,-0.80289257
0.602,-0.9388586,2.2172248,2.287311,1.4524841,1.049329,-0.7856672
0.604,-0.97428143,2.1719465,2.1749434,1.4823362,1.1139306,-0.7678501
0.606,-1.0063851,2.1305294,2.048092,1.5137284,1.1827734,-0.7493929
0.608,-1.0349114,2.0934436,1.9073277,1.5467346,1.255681,-0.7303267
0.61,-1.0593517,2.0611293,1.7533537,1.5812798,1.3322912,-0.7107689
0.612,-1.079442,2.0341644,1.5869696,1.6171412,1.4120166,-0.6909625
0.614,-1.0945747,2.0128846,1.4088306,1.6539817,1.4940358,-0.67125
0.616,-1.1042067,1.9976692,1.2198207,1.6913179,1.5773253,-0.652062
0.618,-1.1080518,1.9885715,1.0212882,1.7285471,1.6605723,-0.6339073
0.62,-1.1057855,1.9855626,0.8149088,1.7649162,1.7421612,-0.61737907
0.622,-1.0971975,1.9884533,0.6026371,1.7995639,1.8203176,-0.60316986
0.624,-1.0821013,1.9966719,0.38667178,1.8315744,1.8931932,-0.5920138
0.626,-1.0603871,2.0096772,0.16941556,1.8600485,1.9589913,-0.5846533
0.628,-1.0321541,2.0267272,-0.046463847,1.88414,2.016001,-0.5817295
0.63,-0.9977812,2.0471663,-0.2582487,1.9031351,2.0626435,-0.5837878
0.632,-0.9576416,2.0701876,-0.46323627,1.91651,2.0976157,-0.5911823
0.634,-0.9119104,2.09489,-0.6588711,1.9240007,2.120009,-0.6040561
0.636,-0.8610173,2.1204197,-0.8426981,1.9255805,2.1293907,-0.6222984
0.638,-0.8054498,2.1458254,-1.0123541,1.9214749,2.1258464,-0.645511
0.64,-0.7455115,2.1701255,-1.1656959,1.9121382,2.1100187,-0.6730252
0.642,-0.6821774,2.1924403,-1.3010111,1.8982148,2.083082,-0.7039215
0.644,-0.61606073,2.2119224,-1.416514,1.8804753,2.0466409,-0.7371179
0.646,-0.54764396,2.227922,-1.5109309,1.859808,2.0025945,-0.7714095
0.648,-0.47770816,2.240019,-1.5831826,1.8371458,1.9530315,-0.80559456
0.65,-0.40681747,2.2476757,-1.6325371,1.8134104,1.9000334,-0.83855766
0.652,-0.33541232,2.2504508,-1.6584418,1.7894869,1.8455448,-0.8693232
0.654,-0.26426038,2.24827,-1.6607696,1.7661383,1.7912025,-0.8971076
0.656,-0.19387642,2.2408504,-1.6400365,1.7440019,1.7382294,-0.92136484
0.658,-0.12494895,2.228035,-1.5969203,1.7235512,1.6873701,-0.94181716
0.66,-0.058139324,2.2099938,-1.5324714,1.7050934,1.638924,-0.9584208
0.662,0.0061908364,2.1868858,-1.4480798,1.6888003,1.5928259,-0.9713486
0.664,0.06741935,2.1589994,-1.3453488,1.674719,1.5487133,-0.980968
0.666,0.12509751,2.1268458,-1.2262945,1.6627882,1.5060651,-0.9877783
0.668,0.17883441,2.0910273,-1.0928671,1.6528705,1.464343,-0.9923898
0.67,0.22818592,2.0521688,-0.94737667,1.6448269,1.423159,-0.99542123
0.672,0.27249834,2.0108612,-0.7920529,1.6385779,1.3824246,-0.997472
0.674,0.31123602,1.9678144,-0.6294969,1.6341224,1.3423879,-0.9990221
0.676,0.34383494,1.9236442,-0.46211076,1.6315268,1.30355,-1.0004041
0.678,0.3698504,1.8791072,-0.292152,1.6308937,1.2666059,-1.0018126
0.68,0.38896903,1.8348716,-0.12177968,1.6323675,1.2323909,-1.0032881
0.682,0.40079856,1.7914891,0.04691714,1.636085,1.2017705,-1.0047442
0.684,0.40526542,1.7494862,0.21196374,1.6421511,1.1755278,-1.005989
0.686,0.40251616,1.7091843,0.37137863,1.650586,1.1542001,-1.0068154
0.688,0.3924929,1.6710057,0.5235792,1.6613071,1.1379853,-1.0070258
0.69,0.37536734,1.6350114,0.6669316,1.674165,1.1266881,-1.0065013
0.692,0.35134897,1.6013911,0.80038244,1.6889385,1.1197293,-1.0052412
0.694,0.32105565,1.5700405,0.9230602,1.7053576,1.1161647,-1.0033386
0.696,0.2850943,1.5407506,1.034367,1.7231297,1.1147921,-1.0010055
0.698,0.24453631,1.513277,1.1336949,1.7419538,1.1143005,-0.99850774
0.7,0.20034444,1.4871082,1.2203166,1.7615334,1.1134025,-0.99616265
0.702,0.15350127,1.4617691,1.2935704,1.7816124,1.1109375,-0.99425596
0.704,0.10460794,1.4369972,1.352942,1.8019798,1.1059879,-0.9930475
0.706,0.054564893,1.4124101,1.3984451,1.8224354,1.0979214,-0.9927741
0.708,0.004296005,1.387542,1.4303484,1.842802,1.0863914,-0.99361885
0.71,-0.04516852,1.3619283,1.4492662,1.8629148,1.0713131,-0.99571466
0.712,-0.093122125,1.3351158,1.4557157,1.8826361,1.052825,-0.9991418
0.714,-0.13839293,1.3067358,1.450115,1.9018357,1.0311927,-1.0039629
0.716,-0.18014646,1.2763823,1.4328437,1.920412,1.0067173,-1.010217
0.718,-0.21740001,1.2439159,1.4040892,1.938287,0.9797023,-1.0179322
0.72,-0.24959803,1.2091955,1.3643916,1.9554567,0.950389,-1.0271144
0.722,-0.2759878,1.1719542,1.3145747,1.9719734,0.9189682,-1.0377252
0.724,-0.29622406,1.1321363,1.2557404,1.9879694,0.88554764,-1.049714
0.726,-0.31018326,1.0897658,1.1889268,2.0036113,0.85020363,-1.0629444
0.728,-0.31763732,1.0450127,1.1152855,2.0191355,0.81300706,-1.0772524
0.73,-0.31834024,0.99797916,1.0358591,2.0347698,0.7740594,-1.0924218
0.732,-0.31213987,0.9488175,0.9519416,2.0507104,0.7334647,-1.1082227
0.734,-0.2990762,0.8978368,0.86463106,2.0670843,0.69132966,-1.1244168
0.736,-0.27913457,0.84531796,0.7752538,2.0839741,0.6478027,-1.1407608
0.738,-0.252551,0.79159033,0.6850807,2.101374,0.6030334,-1.1570203
0.74,-0.21920648,0.7368189,0.5956269,2.1192212,0.55717784,-1.1729965
0.742,-0.17919837,0.6812143,0.50861883,2.1373844,0.5103914,-1.1885413
0.744,-0.13289754,0.6248759,0.42591143,2.155693,0.46283716,-1.2035774
0.746,-0.080525845,0.5677824,0.34918004,2.173964,0.4146958,-1.2180734
0.748,-0.022476539,0.5098785,0.28001586,2.1920276,0.36615717,-1.232067
0.75,0.041006483,0.4511821,0.21980394,2.209736,0.31743,-1.2456114
0.752,0.109837204,0.39157942,0.16987418,2.2269907,0.2687296,-1.2587912
0.754,0.18375766,0.33102322,0.13115393,2.2437596,0.22027403,-1.2716696
0.756,0.26263344,0.26928204,0.104552,2.2600324,0.172281,-1.2843335
0.758,0.34623447,0.20617032,0.09061842,2.2758672,0.12497017,-1.2968545
0.76,0.43435737,0.14151672,0.089655936,2.2913651,0.07861155,-1.3092641
0.762,0.52683455,0.07496701,0.10151801,2.3066819,0.033504665,-1.3215612
0.764,0.6234475,0.0060373545,0.12578824,2.3220034,-0.010015339,-1.3337114
0.766,0.72417694,-0.06559381,0.16195603,2.3375452,-0.051650792,-1.3456393
0.768,0.8288476,-0.14020298,0.20928037,2.3535523,-0.091088146,-1.3572087
0.77,0.9370932,-0.21801618,0.2670197,2.370262,-0.1280348,-1.3682854
0.772,1.0482873,-0.29900238,0.33415258,2.3878906,-0.16223332,-1.3787541
0.774,1.1618522,-0.3832851,0.40948957,2.4065824,-0.19346821,-1.3885069
0.776,1.2772644,-0.47096515,0.49159887,2.426401,-0.22161335,-1.3974776
0.778,1.3939314,-0.5619702,0.57895195,2.4473224,-0.24662638,-1.4056444
0.78,1.5109743,-0.6561696,0.6700094,2.4692414,-0.2685737,-1.4130558
0.782,1.6277099,-0.7533977,0.7631477,2.4919534,-0.28766763,-1.4197862
0.784,1.7433616,-0.8533067,0.8566534,2.5152154,-0.30424282,-1.4259564
0.786,1.8570796,-0.9555417,0.948946,2.5387738,-0.31873226,-1.4317031
0.788,1.9682324,-1.0597599,1.0381057,2.5623686,-0.33160767,-1.4371827
0.79,2.0758688,-1.1653678,1.12264,2.5857697,-0.3433662,-1.4425325
0.792,2.1790783,-1.2718259,1.201101,2.6088026,-0.35446754,-1.4478887
0.794,2.2770178,-1.3784667,1.2723346,2.6313446,-0.3653274,-1.453344
0.796,2.3691292,-1.4847889,1.3354412,2.6533391,-0.37630063,-1.4589617
0.798,2.4550529,-1.590244,1.3895335,2.6747754,-0.38764516,-1.4647583
0.8,2.5345135,-1.6942477,1.4340332,2.6956797,-0.39951324,-1.4707475
0.802,2.6075556,-1.7964368,1.4685212,2.7161126,-0.41197062,-1.4769311
0.804,2.6743588,-1.896395,1.4925871,2.7361555,-0.4249755,-1.4833324
0.806,2.7352915,-1.9937892,1.5062116,2.755909,-0.43843514,-1.4899815
0.808,2.7907689,-2.0884004,1.5095313,2.7754574,-0.4522034,-1.496926
0.81,2.8415332,-2.180036,1.5028328,2.7949166,-0.466121,-1.5042012
0.812,2.888432,-2.2686353,1.4867612,2.814392,-0.47999787,-1.5118326
0.814,2.9325774,-2.3542125,1.4620286,2.8340044,-0.49365628,-1.519832
0.816,2.9752867,-2.4370403,1.4293664,2.853838,-0.5069215,-1.5281662
0.818,3.017795,-2.5172124,1.3895721,2.8739638,-0.5196543,-1.5367413
0.82,3.0613155,-2.595173,1.3436658,2.894433,-0.5317274,-1.5454209
0.822,3.107063,-2.6711168,1.2925797,2.9152436,-0.54307425,-1.5540595
0.824,3.155988,-2.7454634,1.2372215,2.9363716,-0.5536873,-1.5624632
0.826,3.2092748,-2.8184056,1.178624,2.9577575,-0.5636398,-1.5704321
0.828,3.2677267,-2.8902702,1.1178427,2.979308,-0.57309115,-1.5778157
0.83,3.3323355,-2.9614158,1.0558496,3.0009027,-0.5822414,-1.5844983
0.832,3.4036195,-3.032064,0.99355847,3.0224123,-0.5913384,-1.590419
0.834,3.4820132,-3.102623,0.93180585,3.0436945,-0.60068256,-1.595555
0.836,3.5677938,-3.1732407,0.87147236,3.0645962,-0.6105797,-1.5999402
0.838,3.6610816,-3.2441058,0.8134181,3.084986,-0.6213431,-1.6036444
0.84,3.7615836,-3.3151937,0.75859994,3.104754,-0.6332357,-1.6067681
0.842,3.8688753,-3.3864882,0.7077514,3.1238277,-0.6464752,-1.6094198
0.844,3.9825542,-3.4579601,0.66172385,3.1421888,-0.6612146,-1.6117206
0.846,4.101959,-3.529573,0.62093335,3.1598697,-0.67750716,-1.6137325
0.848,4.226626,-3.6013017,0.5858763,3.1769521,-0.6952835,-1.6154903
0.85,4.355587,-3.672913,0.55689645,3.193568,-0.7143656,-1.6169839
0.852,4.487926,-3.7441509,0.5340777,3.209877,-0.7344976,-1.618158
0.854,4.622759,-3.8148088,0.51765424,3.2260664,-0.7553255,-1.618878
0.856,4.7592015,-3.8847451,0.5078043,3.2423265,-0.77644134,-1.6189581
0.858,4.896288,-3.953732,0.5044613,3.2588425,-0.79743594,-1.6181765
0.86,5.0327654,-4.021731,0.50796294,3.2757595,-0.81785256,-1.6162983
0.862,5.1676416,-4.08867,0.5182735,3.2931852,-0.83728206,-1.6131158
0.864,5.3000283,-4.154612,0.53542054,3.31117,-0.85534465,-1.6084206
0.866,5.4287634,-4.2194114,0.55923754,3.3297157,-0.87173915,-1.6020355
0.868,5.553176,-4.2831926,0.5892307,3.3487928,-0.88623357,-1.5938288
0.87,5.6727,-4.346002,0.6247227,3.3683414,-0.89866793,-1.5837183
0.872,5.7867045,-4.408107,0.665171,3.3883007,-0.9089375,-1.5716673
0.874,5.894758,-4.4695835,0.70984393,3.4085884,-0.9170301,-1.5576975
0.876,5.996386,-4.5307198,0.75808,3.4291399,-0.9230019,-1.5418746
0.878,6.091307,-4.59175,0.8089928,3.4498947,-0.9269737,-1.5242966
0.88,6.179519,-4.653015,0.86169004,3.4707882,-0.929143,-1.5051094
0.882,6.2610207,-4.7148643,0.9154062,3.4917448,-0.9297758,-1.4844925
0.884,6.335992,-4.777567,0.9693917,3.5126626,-0.9292072,-1.4626503
0.886,6.404629,-4.8413506,1.022924,3.5333884,-0.9278432,-1.4398203
0.888,6.4671235,-4.9064083,1.0751188,3.5537322,-0.92615527,-1.4162629
0.89,6.5241613,-4.9728384,1.1251545,3.5734537,-0.9247265,-1.3922406
0.892,6.5762405,-5.040732,1.1722071,3.5922592,-0.9242455,-1.3680578
0.894,6.6239405,-5.1100755,1.2154105,3.6098268,-0.9255059,-1.3440237
0.896,6.6681604,-5.1809845,1.2542063,3.6258094,-0.9293666,-1.3204994
0.898,6.709605,-5.253499,1.2880778,3.6398633,-0.93669415,-1.297875
0.9,6.7491713,-5.327717,1.3165843,3.6516867,-0.9483155,-1.2765784
0.902,6.78772,-5.403525,1.3394822,3.6610637,-0.9649457,-1.2570013
0.904,6.8259354,-5.480927,1.3565102,3.6678789,-0.9870987,-1.2394823
0.906,6.864463,-5.5595384,1.3676383,3.6721482,-1.0150166,-1.2242817
0.908,6.9039216,-5.639263,1.3726413,3.6740143,-1.0486748,-1.2115599
0.91,6.945012,-5.7198024,1.3714635,3.6737282,-1.0877235,-1.2013493
0.912,6.988149,-5.800847,1.3637348,3.6716402,-1.1315155,-1.1935743
0.914,7.0339046,-5.882046,1.349369,3.6681778,-1.1791849,-1.1880302
0.916,7.08259,-5.9630356,1.3279552,3.6638088,-1.229675,-1.1844094
0.918,7.1342964,-6.0433226,1.2992069,3.6590033,-1.2818421,-1.1823387
0.92,7.189245,-6.122563,1.2626879,3.6541944,-1.3345472,-1.1814245
0.922,7.2472687,-6.2001925,1.2180063,3.6497664,-1.3866994,-1.1812447
0.924,7.3085423,-6.2757316,1.1647218,3.6460662,-1.4373391,-1.1813781
0.926,7.37275,-6.3485184,1.1024778,3.6433568,-1.4856902,-1.1814213
0.928,7.4398355,-6.418114,1.0310514,3.6418624,-1.5311265,-1.180985
0.93,7.5100794,-6.4841876,0.9509983,3.6417568,-1.5732145,-1.1797143
0.932,7.5819387,-6.545773,0.86248195,3.6431594,-1.6116712,-1.1773018
0.934,7.653668,-6.601535,0.7641696,3.6461682,-1.646363,-1.1734524
0.936,7.725148,-6.650965,0.6553056,3.650839,-1.6772895,-1.1679394
0.938,7.7962637,-6.6938853,0.53744936,3.6571887,-1.7045846,-1.1605968
0.94,7.863221,-6.7289653,0.41466117,3.66519,-1.7284876,-1.1513257
0.942,7.926985,-6.7580247,0.29314876,3.6747885,-1.7493243,-1.1401249
0.944,7.989238,-6.7824955,0.17067516,3.6858964,-1.7674736,-1.1270502
0.946,8.046909,-6.799396,0.039121628,3.6984017,-1.7833861,-1.1122067
0.948,8.099179,-6.8081713,-0.1000402,3.7121475,-1.7975693,-1.095767
0.95,8.144375,-6.8087506,-0.2398119,3.7269773,-1.810565,-1.0779117
0.952,8.181764,-6.800026,-0.37704682,3.7427044,-1.8229535,-1.0588422
0.954,8.211131,-6.782342,-0.50900936,3.7591102,-1.8353426,-1.0387626
0.956,8.232313,-6.7573833,-0.63305926,3.775949,-1.8483932,-1.0178888
0.958,8.244169,-6.7255054,-0.74796295,3.7929606,-1.8628252,-0.99644387
0.96,8.2446785,-6.6864223,-0.8518665,3.8098288,-1.8794937,-0.9747048
0.962,8.234129,-6.6408443,-0.94113326,3.8263001,-1.8992305,-0.95291555
0.964,8.213559,-6.590149,-1.0138264,3.8422348,-1.9228042,-0.93132675
0.966,8.182121,-6.53517,-1.0682206,3.857502,-1.9511105,-0.91018933
0.968,8.138944,-6.477215,-1.1005917,3.8719053,-1.9853,-0.8898369
0.97,8.0845175,-6.417802,-1.1079378,3.88507,-2.026856,-0.87084955
0.972,8.019945,-6.3584843,-1.0887184,3.8968856,-2.0764167,-0.85364974
0.974,7.946737,-6.300582,-1.0430005,3.908074,-2.132803,-0.8379678
0.976,7.8667006,-6.2453556,-0.9713862,3.9193254,-2.1951518,-0.82355684
0.978,7.7816343,-6.193746,-0.8743901,3.93099,-2.2633724,-0.8103075
0.98,7.6931076,-6.1465898,-0.75294614,3.944009,-2.335643,-0.7975615
0.982,7.6031404,-6.104512,-0.6091063,3.9597943,-2.4087062,-0.7843344
0.984,7.514139,-6.068451,-0.44552732,3.979864,-2.478713,-0.7694422
0.986,7.4286094,-6.039097,-0.26551747,4.006005,-2.5409207,-0.7511234
0.988,7.349014,-6.016826,-0.07238531,4.040176,-2.5900059,-0.7270514
0.99,7.2779403,-6.0020204,0.13062668,4.084309,-2.6205432,-0.69468486
0.992,7.2180114,-5.9947767,0.3398986,4.1403418,-2.6268473,-0.6515639
0.994,7.1717625,-5.9949574,0.55102515,4.2099752,-2.6035986,-0.59551644
0.996,7.1411047,-6.0020704,0.7591634,4.2942724,-2.5468407,-0.5249077
0.998,7.1279597,-6.0153,0.9591794,4.3936243,-2.4539819,-0.43871534
1,7.1333632,-6.033481,1.1462536,4.507742,-2.3236504,-0.336519
1.002,7.157842,-6.054924,1.3159071,4.6355395,-2.1560397,-0.21860385
1.004,7.2013073,-6.0779037,1.4644498,4.7751803,-1.9528921,-0.08594763
1.006,7.2626934,-6.10022,1.5883727,4.9242473,-1.7172679,0.05995375
1.008,7.340644,-6.119613,1.6849914,5.079927,-1.4533012,0.21728271
1.01,7.4332523,-6.133584,1.7521966,5.2392554,-1.1657687,0.3840847
1.012,7.5381975,-6.139488,1.7886287,5.3993177,-0.85976684,0.55843747
1.014,7.6526036,-6.1343875,1.7935077,5.5573883,-0.5405454,0.7386303
1.016,7.7734246,-6.1157203,1.7668341,5.7109876,-0.21350259,0.9231596
1.018,7.8973765,-6.0807385,1.7095091,5.857982,0.115977585,1.1107886
1.02,8.020547,-6.026748,1.6231332,5.9967227,0.44282538,1.3004966
1.022,8.139163,-5.951417,1.5101604,6.1260843,0.7624115,1.4914625
1.024,8.249163,-5.8525934,1.373291,6.245394,1.0704824,1.6830199
1.026,8.346712,-5.7283583,1.2158058,6.3539968,1.3623755,1.8742497
1.028,8.428266,-5.577367,1.0414081,6.451066,1.6331719,2.0638
1.03,8.490258,-5.3984632,0.85391307,6.5364995,1.879992,2.250692
1.032,8.530164,-5.191285,0.6573396,6.610705,2.1014822,2.4341583
1.034,8.545094,-4.9559135,0.45552373,6.673608,2.2955265,2.613068
1.036,8.533172,-4.692996,0.25185132,6.725051,2.4606009,2.7864842
1.038,8.492869,-4.403623,0.049291134,6.765077,2.5966241,2.9538038
1.04,8.422908,-4.089143,-0.15013838,6.793668,2.7043085,3.1144817
1.042,8.323838,-3.751776,-0.3438673,6.810792,2.7851932,3.2681937
1.044,8.19737,-3.3951266,-0.52825546,6.8164763,2.8414838,3.415069
1.046,8.042049,-3.0206506,-0.7020435,6.8106775,2.8753264,3.5555677
1.048,7.8592367,-2.6310768,-0.8661335,6.793416,2.8889391,3.6902592
1.05,7.6531606,-2.2299545,-1.0231028,6.7649612,2.8847313,3.8196435
1.052,7.423466,-1.8182809,-1.1757127,6.7256207,2.8645387,3.9439495
1.054,7.1703362,-1.3981124,-1.3184501,6.6757345,2.8293605,4.063075
1.056,6.8988805,-0.9755117,-1.4435935,6.6157975,2.7797084,4.1767745
1.058,6.611646,-0.5530538,-1.5551395,6.5464435,2.7156794,4.2846932
1.06,6.3123627,-0.1327579,-1.6603647,6.4684234,2.6370153,4.386426
1.062,6.003957,0.28269458,-1.7607108,6.38261,2.5432718,4.48156
1.064,5.688975,0.69245625,-1.8566897,6.2899156,2.4338775,4.5697465
1.066,5.3704996,1.0966048,-1.9484744,6.1913376,2.308362,4.6507673
1.068,5.052514,1.4938031,-2.035076,6.0879445,2.1665835,4.724515
1.07,4.7394857,1.8823876,-2.1166265,5.980865,2.0088184,4.791031
1.072,4.433117,2.2623477,-2.1944325,5.871197,1.83571,4.850477
1.074,4.1349277,2.6341543,-2.2679443,5.7599587,1.648201,4.903308
1.076,3.8486087,2.9976325,-2.3364112,5.648108,1.447541,4.950059
1.078,3.57726,3.3530297,-2.4006212,5.5365305,1.2352235,4.991337
1.08,3.3221297,3.7007704,-2.4604511,5.4259963,1.0129428,5.027835
1.082,3.08411,4.0414023,-2.5141592,5.317156,0.7824948,5.0602694
1.084,2.8635654,4.3752947,-2.5592995,5.210491,0.5456251,5.0893526
1.086,2.6611505,4.702582,-2.5937796,5.106328,0.30393827,5.115691
1.088,2.4769285,5.023633,-2.6165013,5.0048184,0.058873653,5.139703
1.09,2.3111126,5.3387547,-2.6265361,4.9059596,-0.18833959,5.1615524
1.092,2.163011,5.648519,-2.6229367,4.809641,-0.43666184,5.1811647
1.094,2.0316558,5.953574,-2.6049752,4.715705,-0.6851927,5.198271
1.096,1.9156828,6.2544985,-2.572129,4.623996,-0.9331566,5.2124357
1.098,1.8135289,6.551661,-2.52459,4.5344424,-1.179813,5.2231727
1.1,1.7230622,6.8456087,-2.4629383,4.447112,-1.4243774,5.230014
1.102,1.6419584,7.136859,-2.3875318,4.3621993,-1.6659366,5.2325654
1.104,1.5676829,7.425899,-2.2982326,4.2800283,-1.9034642,5.230583
1.106,1.4977934,7.712867,-2.1946464,4.2010217,-2.1358042,5.2240353
1.108,1.429734,7.9979773,-2.0763767,4.1256375,-2.36171,5.2130833
1.11,1.3611531,8.281157,-1.9434409,4.0543137,-2.5798826,5.1980653
1.112,1.2897906,8.5622635,-1.7960527,3.987391,-2.7891078,5.1794677
1.114,1.2133101,8.841349,-1.6347947,3.9250934,-2.9883618,5.1578474
1.116,1.1297238,9.118325,-1.4601431,3.867503,-3.1768885,5.133783
1.118,1.0369682,9.393143,-1.2726631,3.8145814,-3.3542633,5.107801
1.12,0.93300104,9.665703,-1.0728953,3.7661366,-3.520439,5.0803
1.122,0.81598574,9.9357815,-0.8614712,3.721911,-3.6756878,5.0515623
1.124,0.6845879,10.202986,-0.6388228,3.6815538,-3.8205712,5.021728
1.126,0.5373738,10.467219,-0.40555668,3.6447031,-3.9558191,4.9908624
1.128,0.37325925,10.728152,-0.16235018,3.6110768,-4.082206,4.9588532
1.13,0.19160768,10.985414,0.0900507,3.5804253,-4.2004757,4.925621
1.132,-0.008108944,11.238695,0.3506732,3.5525942,-4.311147,4.891091
1.134,-0.22608453,11.487595,0.61865187,3.527587,-4.4144588,4.8551583
1.136,-0.46221182,11.731491,0.8927951,3.505486,-4.5103126,4.817747
1.138,-0.71632487,11.9701805,1.1717613,3.4864671,-4.5982924,4.778822
1.14,-0.9878141,12.2031,1.4541823,3.4707477,-4.677702,4.738431
1.142,-1.2762796,12.429985,1.7384173,3.4585469,-4.7476873,4.696688
1.144,-1.580522,12.650582,2.0229125,3.4500604,-4.8073597,4.653754
1.146,-1.8996633,12.864568,2.3062842,3.4454203,-4.8558702,4.6098475
1.148,-2.2325797,13.0718775,2.5871272,3.4446712,-4.892567,4.5652037
1.15,-2.5778124,13.272151,2.8638318,3.4478102,-4.916998,4.520094
1.152,-2.933611,13.465085,3.1348171,3.4547653,-4.928954,4.474767
1.154,-3.2989676,13.651145,3.3981392,3.4654183,-4.928479,4.4294343
1.156,-3.6710703,13.829284,3.652907,3.4796486,-4.9158487,4.3843026
1.158,-4.0490713,13.999928,3.8977842,3.4973416,-4.8914833,4.3395276
1.16,-4.431152,14.163081,4.131868,3.5184116,-4.8558965,4.2952256
1.162,-4.815324,14.318912,4.3542404,3.5428026,-4.809621,4.2514925
1.164,-5.1993155,14.4674835,4.5639095,3.5704877,-4.753178,4.2084107
1.166,-5.5808926,14.6090355,4.760153,3.601449,-4.6870737,4.1660795
1.168,-5.9580283,14.743953,4.9424834,3.6356373,-4.6117697,4.1245856
1.17,-6.329207,14.87279,5.110763,3.6729646,-4.5277348,4.084004
1.172,-6.6930532,14.996158,5.2651157,3.7132802,-4.4354205,4.0443916
1.174,-7.048136,15.114714,5.4059525,3.756402,-4.335315,4.005785
1.176,-7.3932986,15.229128,5.533728,3.8020756,-4.2279096,3.9681673
1.178,-7.727464,15.340078,5.649046,3.8500497,-4.1136875,3.93147
1.18,-8.049771,15.448447,5.7527246,3.9000666,-3.9931498,3.8955579
1.182,-8.359329,15.554841,5.845517,3.9518597,-3.8667939,3.8602679
1.184,-8.655401,15.660014,5.9281435,4.005191,-3.7351286,3.8254006
1.186,-8.937941,15.764804,6.001305,4.0598464,-3.5986474,3.7907434
1.188,-9.206923,15.869996,6.06551,4.115643,-3.45782,3.7560642
1.19,-9.462155,15.976437,6.1213307,4.1723957,-3.3131194,3.7211173
1.192,-9.704159,16.084627,6.1692796,4.2299266,-3.1650443,3.6856363
1.194,-9.933316,16.194973,6.2098246,4.2879996,-3.014152,3.649336
1.196,-10.150527,16.308027,6.243529,4.346323,-2.861062,3.611907
1.198,-10.356542,16.424116,6.2710066,4.4045525,-2.7064564,3.5730116
1.2,-10.552241,16.543526,6.2925496,4.462275,-2.5510979,3.532282
1.202,-10.738555,16.666456,6.3088207,4.51904,-2.3958097,3.4893885
1.204,-10.916627,16.79307,6.3203053,4.5743566,-2.2414715,3.4440477
1.206,-11.087611,16.92329,6.3273845,4.627743,-2.0889697,3.39604
1.208,-11.253061,17.057,6.3308206,4.6787677,-1.9391598,3.3452227
1.21,-11.414006,17.193853,6.3310604,4.727055,-1.7928724,3.2915208
1.212,-11.571756,17.333595,6.328359,4.772315,-1.6508234,3.2349038
1.214,-11.727491,17.475664,6.322916,4.8143473,-1.5136062,3.1753697
1.216,-11.882172,17.619625,6.3147364,4.8530455,-1.381676,3.1129367
1.218,-12.036981,17.765083,6.3036594,4.8884077,-1.2553225,3.047607
1.22,-12.192656,17.911509,6.289419,4.920533,-1.1346445,2.9793532
1.222,-12.350037,18.058416,6.2719326,4.949614,-1.0195624,2.908156
1.224,-12.509695,18.205275,6.2510905,4.975905,-0.9098588,2.8339825
1.226,-12.672037,18.351692,6.227019,4.999713,-0.8052168,2.7568274
1.228,-12.837475,18.49716,6.19983,5.021373,-0.70524657,2.6767168
1.23,-13.006001,18.641325,6.169576,5.041232,-0.60958475,2.593715
1.232,-13.177526,18.783743,6.136313,5.0596085,-0.517954,2.5079052
1.234,-13.351758,18.924324,6.10017,5.076769,-0.43025696,2.4194002
1.236,-13.528088,19.062803,6.0614715,5.0929117,-0.34664124,2.3283355
1.238,-13.705764,19.199123,6.0206933,5.1081123,-0.26749736,2.2347898
1.24,-13.883823,19.333212,5.9779935,5.1223254,-0.1935482,2.1389184
1.242,-14.061034,19.465195,5.9336424,5.1353936,-0.12568617,2.0407867
1.244,-14.23586,19.595163,5.8879066,5.147098,-0.065004766,1.9404545
1.246,-14.406808,19.723274,5.841198,5.1571474,-0.012681186,1.8379936
1.248,-14.572323,19.849554,5.7940397,5.165276,0.030142725,1.7334881
1.25,-14.730842,19.974216,5.746995,5.171234,0.062424004,1.6270267
1.252,-14.880705,20.09737,5.7004805,5.1748247,0.08335945,1.5187193
1.254,-15.020515,20.219025,5.6551194,5.1759424,0.09237951,1.4086716
1.256,-15.148617,20.339231,5.611514,5.174549,0.08918005,1.2969409
1.258,-15.263561,20.457907,5.570329,5.170668,0.073702246,1.1834881
1.26,-15.364179,20.575073,5.5323906,5.1643524,0.046147496,1.0681734
1.262,-15.449571,20.690659,5.498408,5.155656,0.0068853796,0.95073843
1.264,-15.518954,20.80462,5.4693327,5.1446443,-0.04354906,0.830829
1.266,-15.57164,20.916714,5.4459796,5.1313524,-0.10452047,0.70800996
1.268,-15.607281,21.02676,5.429286,5.1158,-0.17530996,0.58179045
1.27,-15.625965,21.134583,5.420103,5.098013,-0.25504905,0.45169032
1.272,-15.62801,21.239866,5.4195013,5.078001,-0.34273446,0.31733054
1.274,-15.614208,21.342262,5.428683,5.055815,-0.43721735,0.17847717
1.276,-15.585592,21.44154,5.448861,5.0315576,-0.5372038,0.03509265
1.278,-15.543301,21.537403,5.481146,5.0053897,-0.64125174,-0.11264789
1.28,-15.488698,21.62975,5.526637,4.9775376,-0.7477977,-0.26438314
1.282,-15.42328,21.718304,5.5863066,4.9482584,-0.85523134,-0.41956627
1.284,-15.348666,21.803108,5.6606994,4.9178534,-0.9619653,-0.57750756
1.286,-15.266715,21.884148,5.7504787,4.886619,-1.0665087,-0.737445
1.288,-15.179358,21.961609,5.855873,4.8548265,-1.1675481,-0.8986392
1.29,-15.088452,22.035622,5.9768457,4.822707,-1.2640045,-1.0604463
1.292,-14.9958725,22.10647,6.1132097,4.7904353,-1.3551505,-1.2223036
1.294,-14.903656,22.174397,6.264683,4.7580924,-1.4405569,-1.3838947
1.296,-14.813386,22.239548,6.4307456,4.7256947,-1.5202037,-1.5449985
1.298,-14.726538,22.302094,6.6106577,4.6931653,-1.5943432,-1.7055953
1.3,-14.64439,22.362038,6.803483,4.6603894,-1.6634917,-1.8658382
1.302,-14.567602,22.419487,7.0080733,4.627193,-1.728374,-2.0260265
1.304,-14.496702,22.474567,7.223127,4.5934205,-1.7897925,-2.186531
1.306,-14.431923,22.527208,7.4471016,4.558937,-1.8486004,-2.3477771
1.308,-14.37323,22.577232,7.678591,4.523662,-1.9055889,-2.5101879
1.31,-14.320204,22.624197,7.9163375,4.487586,-1.9614494,-2.6741438
1.312,-14.272089,22.667698,8.158573,4.450774,-2.0167227,-2.8399289
1.314,-14.227648,22.707136,8.40366,4.41336,-2.0718112,-3.0077147
1.316,-14.185554,22.741888,8.649822,4.375538,-2.1269271,-3.1775584
1.318,-14.143584,22.771084,8.895229,4.3375254,-2.1821084,-3.3493924
1.32,-14.099946,22.793756,9.138341,4.2995853,-2.2372446,-3.5230405
1.322,-14.052462,22.808743,9.378042,4.261986,-2.2920787,-3.698238
1.324,-13.998896,22.815022,9.613199,4.22498,-2.3462763,-3.8746533
1.326,-13.936827,22.811253,9.842954,4.188807,-2.3993835,-4.0519485
1.328,-13.86389,22.796017,10.066146,4.153659,-2.4508865,-4.229764
1.33,-13.77759,22.767986,10.281622,4.1196823,-2.5002506,-4.407781
1.332,-13.675634,22.725729,10.48792,4.086974,-2.546953,-4.585738
1.334,-13.555898,22.668005,10.68363,4.0556,-2.5905166,-4.7634587
1.336,-13.416626,22.5934,10.867318,4.0255947,-2.6305332,-4.9408507
1.338,-13.256239,22.50076,11.03772,3.9969456,-2.6667042,-5.117895
1.34,-13.073342,22.388866,11.193672,3.9696155,-2.69885,-5.2946053
1.342,-12.866991,22.256554,11.334091,3.943533,-2.7269392,-5.4710193
1.344,-12.636807,22.10285,11.457714,3.91861,-2.7510605,-5.647169
1.346,-12.382554,21.92703,11.563213,3.8947413,-2.771402,-5.823034
1.348,-12.104346,21.728546,11.649319,3.8718133,-2.7882533,-5.9985604
1.35,-11.802647,21.507015,11.715236,3.8496869,-2.8019662,-6.1736093
1.352,-11.478415,21.262226,11.760579,3.828206,-2.8129365,-6.3479857
1.354,-11.1327715,20.994083,11.785115,3.8071885,-2.8216026,-6.5214453
1.356,-10.766893,20.702946,11.788613,3.7864196,-2.8284307,-6.6937175
1.358,-10.382249,20.389236,11.770605,3.7656803,-2.8339305,-6.864552
1.36,-9.980642,20.053776,11.730789,3.7447145,-2.8386087,-7.0337477
1.362,-9.563875,19.6976,11.669179,3.7232692,-2.843014,-7.2011395
1.364,-9.133698,19.322073,11.586008,3.7011209,-2.8476856,-7.3665886
1.366,-8.691893,18.928537,11.481934,3.6780937,-2.8531709,-7.5300274
1.368,-8.240271,18.518526,11.358069,3.6540713,-2.8599515,-7.6914186
1.37,-7.7806234,18.093752,11.215521,3.629042,-2.868452,-7.8507466
1.372,-7.3146963,17.656048,11.055824,3.6030924,-2.8790028,-8.007949
1.374,-6.8442636,17.207413,10.880658,3.576364,-2.8918028,-8.162942
1.376,-6.3708887,16.749918,10.69183,3.549091,-2.9069023,-8.315551
1.378,-5.8959785,16.2858,10.49165,3.5215747,-2.924198,-8.465579
1.38,-5.4206357,15.817182,10.282344,3.494128,-2.9435263,-8.612776
1.382,-4.9458146,15.346259,10.066132,3.4670722,-2.9647138,-8.756881
1.384,-4.4719567,14.875066,9.845119,3.4406917,-2.987557,-8.897598
1.386,-3.999755,14.405632,9.621514,3.4152126,-3.0119061,-9.034632
1.388,-3.5295656,13.939997,9.397703,3.3907814,-3.0376701,-9.167719
1.39,-3.0614953,13.480092,9.175723,3.3674555,-3.064867,-9.2966175
1.392,-2.5955415,13.027757,8.957401,3.3452525,-3.0935855,-9.421135
1.394,-2.131533,12.584556,8.744777,3.3241255,-3.1239924,-9.541136
1.396,-1.6689297,12.151921,8.539594,3.3039927,-3.1563072,-9.656542
1.398,-1.2075667,11.731117,8.343371,3.2847452,-3.190782,-9.767347
1.4,-0.74688107,11.3232155,8.157577,3.2662652,-3.227684,-9.873594
1.402,-0.286296,10.929078,7.983571,3.2484066,-3.267313,-9.975395
1.404,0.17521167,10.549269,7.8225965,3.2309954,-3.3100567,-10.07295
1.406,0.6385237,10.18409,7.675814,3.2137973,-3.3564425,-10.166558
1.408,1.1045233,9.833605,7.5443306,3.196549,-3.4071174,-10.256648
1.41,1.5741737,9.497391,7.429434,3.178929,-3.462828,-10.343771
1.412,2.048197,9.174937,7.332208,3.1605504,-3.524413,-10.4285755
1.414,2.5274916,8.865402,7.2535157,3.1410036,-3.5926967,-10.511775
1.416,3.0128999,8.567888,7.194087,3.119862,-3.6683629,-10.594091
1.418,3.5050917,8.281302,7.1547585,3.0967147,-3.7519646,-10.676185
1.42,4.00415,8.004852,7.1361723,3.0712104,-3.843768,-10.758564
1.422,4.5105333,7.737042,7.1398892,3.0430555,-3.9436517,-10.841572
1.424,5.023905,7.47666,7.1667137,3.0120468,-4.0511184,-10.925327
1.426,5.544422,7.222774,7.2174807,2.9780636,-4.165305,-11.009757
1.428,6.0715876,6.9746537,7.294034,2.9410803,-4.28504,-11.09455
1.43,6.604767,6.731639,7.3984385,2.9011135,-4.408943,-11.17927
1.432,7.143281,6.4930854,7.5316916,2.8582182,-4.5355654,-11.26337
1.434,7.686775,6.258549,7.694558,2.812474,-4.663463,-11.346294
1.436,8.234262,6.0283647,7.8876743,2.763983,-4.791294,-11.427525
1.438,8.784487,5.8030396,8.112234,2.7128494,-4.9179487,-11.506677
1.44,9.335668,5.583328,8.369347,2.659216,-5.0425987,-11.583496
1.442,9.886076,5.3703623,8.660124,2.6032903,-5.1647267,-11.657875
1.444,10.433117,5.165915,8.985773,2.545344,-5.2840996,-11.729832
1.446,10.976766,4.970621,9.346739,2.4856896,-5.400737,-11.799501
1.448,11.514987,4.7867393,9.74136,2.424707,-5.5148287,-11.867083
1.45,12.045713,4.617117,10.168993,2.3628078,-5.626683,-11.932808
1.452,12.566505,4.464858,10.630716,2.300406,-5.7366457,-11.996933
1.454,13.074934,4.3321075,11.127293,2.237901,-5.84504,-12.059637
1.456,13.569062,4.2204814,11.657237,2.1756036,-5.952136,-12.120989
1.458,14.046996,4.1321173,12.217876,2.1137104,-6.058155,-12.18103
1.46,14.506429,4.069687,12.806712,2.0522954,-6.1631637,-12.239795
1.462,14.94524,4.03539,13.421292,1.9913363,-6.2671437,-12.297232
1.464,15.361885,4.031147,14.058424,1.9306746,-6.370168,-12.353264
1.466,15.755017,4.058214,14.7149515,1.8700469,-6.4723787,-12.407791
1.468,16.123608,4.117919,15.3875675,1.8091316,-6.5740714,-12.460747
1.47,16.466867,4.2111444,16.072887,1.7476034,-6.6756935,-12.512124
1.472,16.784763,4.3382654,16.766722,1.6851263,-6.777793,-12.561953
1.474,17.078129,4.4985723,17.465311,1.621355,-6.8811464,-12.610338
1.476,17.347738,4.6919847,18.164234,1.5559335,-6.9867125,-12.657312
1.478,17.595324,4.916835,18.859644,1.4885392,-7.095622,-12.7028675
1.48,17.822844,5.171288,19.548178,1.4188061,-7.2094173,-12.746994
1.482,18.03292,5.453293,20.226707,1.3462477,-7.329909,-12.789828
1.484,18.228922,5.759845,20.892693,1.2702456,-7.4589486,-12.831566
1.486,18.414415,6.0878105,21.544147,1.1901579,-7.598305,-12.87236
1.488,18.593344,6.433237,22.17888,1.1052656,-7.7498045,-12.912254
1.49,18.76998,6.7919583,22.794928,1.0148396,-7.915145,-12.951277
1.492,18.94894,7.1598225,23.390451,0.9182396,-8.095694,-12.989418
1.494,19.13459,7.532683,23.964434,0.8150034,-8.292222,-13.026543
1.496,19.331684,7.906093,24.516117,0.70484114,-8.504789,-13.062372
1.498,19.544981,8.275291,25.04527,0.5877428,-8.732687,-13.096445
1.5,19.778933,8.635517,25.552176,0.46399784,-8.97434,-13.128109
1.502,20.038017,8.98218,26.037289,0.33421135,-9.227453,-13.156511
1.504,20.325962,9.310905,26.500912,0.19911003,-9.4890785,-13.180481
1.506,20.646044,9.617695,26.943254,0.059622765,-9.75591,-13.1987915
1.508,21.00206,9.898394,27.36482,-0.083274364,-10.024719,-13.210304
1.51,21.396217,10.149654,27.766394,-0.22861052,-10.292412,-13.213758
1.512,21.830486,10.368388,28.14883,-0.375432,-10.55621,-13.207851
1.514,22.306198,10.552083,28.51333,-0.5228734,-10.814009,-13.191439
1.516,22.823944,10.69877,28.860985,-0.6702056,-11.064503,-13.163615
1.518,23.383833,10.806903,29.193073,-0.81681776,-11.3069315,-13.123809
1.52,23.985142,10.875683,29.510754,-0.9621825,-11.540997,-13.071767
1.522,24.627039,10.904632,29.815647,-1.1058154,-11.766834,-13.007535
1.524,25.3078,10.893789,30.109447,-1.2472491,-11.9847765,-12.931434
1.526,26.02559,10.843548,30.394001,-1.3859982,-12.195179,-12.844023
1.528,26.77808,10.754898,30.671112,-1.5214491,-12.398142,-12.745975
1.53,27.562756,10.628927,30.943,-1.6529093,-12.593502,-12.638062
1.532,28.376862,10.467398,31.211279,-1.7796135,-12.780745,-12.52099
1.534,29.217434,10.27216,31.478506,-1.9007034,-12.958941,-12.395287
1.536,30.080822,10.045005,31.746693,-2.0152183,-13.127082,-12.261197
1.538,30.963015,9.788342,32.016457,-2.1222196,-13.284328,-12.118786
1.54,31.860266,9.504937,32.28798,-2.22089,-13.430104,-11.968167
1.542,32.76904,9.197938,32.56158,-2.3105116,-13.563889,-11.809403
1.544,33.685596,8.870193,32.83801,-2.3904638,-13.685372,-11.642535
1.546,34.60709,8.524203,33.117287,-2.4602625,-13.794509,-11.467576
1.548,35.531055,8.162496,33.3995,-2.5195603,-13.891558,-11.284632
1.55,36.45548,7.787749,33.68451,-2.568076,-13.976881,-11.093936
1.552,37.37792,7.4020295,33.971806,-2.605553,-14.0508175,-10.895781
1.554,38.297203,7.007284,34.260506,-2.6317601,-14.113652,-10.690483
1.556,39.210377,6.6066647,34.549927,-2.6464586,-14.16553,-10.478346
1.558,40.116856,6.202012,34.840054,-2.6493359,-14.206499,-10.259726
1.56,41.01602,5.7946463,35.12921,-2.640049,-14.236423,-10.034758
1.562,41.908493,5.386119,35.41393,-2.6182632,-14.254943,-9.803419
1.564,42.795082,4.9785147,35.69197,-2.5835943,-14.261792,-9.565744
1.566,43.676414,4.5741086,35.96337,-2.53572,-14.256852,-9.321676
1.568,44.553593,4.1743035,36.228832,-2.4743762,-14.240028,-9.070977
1.57,45.42863,3.7799916,36.488426,-2.3992856,-14.211167,-8.813332
1.572,46.303623,3.392644,36.741905,-2.3102238,-14.17027,-8.548349
1.574,47.180214,3.0140371,36.98954,-2.2069976,-14.117461,-8.275536
1.576,48.060253,2.646491,37.231453,-2.0894656,-14.05278,-7.994295
1.578,48.94574,2.2922654,37.46823,-1.9575319,-13.9762125,-7.70391
1.58,49.838646,1.9543824,37.700897,-1.8111193,-13.887785,-7.4035153
1.582,50.74136,1.6358807,37.93114,-1.6503267,-13.787605,-7.0922256
1.584,51.656265,1.3403888,38.16064,-1.4753098,-13.675921,-6.76915
1.586,52.58637,1.0712142,38.391483,-1.2863394,-13.553257,-6.4333506
1.588,53.534477,0.83321285,38.625557,-1.0838668,-13.420597,-6.0840626
1.59,54.50355,0.63126194,38.865265,-0.86847264,-13.279355,-5.720751
1.592,55.49615,0.4706831,39.1133,-0.6408267,-13.131385,-5.3430653
1.594,56.514297,0.35778165,39.37255,-0.4015814,-12.9788685,-4.9508557
1.596,57.559677,0.2995007,39.645714,-0.15135574,-12.824218,-4.54413
1.598,58.63768,0.30019283,39.93601,0.10937035,-12.669924,-4.1230187
1.6,59.749203,0.3682344,40.245285,0.38024843,-12.5183935,-3.6877108
1.602,60.89623,0.5138645,40.574963,0.66115177,-12.371712,-3.238375
1.604,62.08157,0.7475548,40.92594,0.9521204,-12.231557,-2.775052
1.606,63.30052,1.0832717,41.303,1.2532611,-12.099345,-2.2976966
1.608,64.55734,1.5252378,41.7082,1.564688,-11.976187,-1.8061396
1.61,65.8548,2.0815685,42.145096,1.8864201,-11.862961,-1.3000882
1.612,67.18799,2.773152,42.61512,2.2182543,-11.760461,-0.7791494
1.614,68.55628,3.6194098,43.118828,2.5596583,-11.669477,-0.24284685
1.616,69.957825,4.641593,43.65568,2.9097316,-11.590754,0.3094322
1.618,71.39342,5.8556695,44.221634,3.2671583,-11.525132,0.8783513
1.62,72.86537,7.275802,44.81137,3.6301455,-11.473624,1.4645982
1.622,74.36877,8.918847,45.42563,3.996467,-11.437331,2.0688553
1.624,75.88547,10.821852,46.065582,4.363496,-11.417581,2.6917958
1.626,77.421364,13.00753,46.725296,4.7282,-11.415837,3.3340552
1.628,78.9662,15.50808,47.399628,5.08713,-11.433872,3.9963908
1.63,80.50581,18.355335,48.073387,5.4368443,-11.473351,4.679682
1.632,82.03354,21.54904,48.746826,5.774489,-11.534921,5.384775
1.634,83.521126,25.120108,49.41362,6.0976233,-11.618477,6.1123285
1.636,84.94075,29.105217,50.07287,6.404065,-11.72369,6.8622684
1.638,86.292336,33.495464,50.77299,6.6918435,-11.849688,7.6346574
1.64,87.590515,38.25582,51.563843,6.959713,-11.993837,8.430301
1.642,88.792595,43.437546,52.484276,7.207846,-12.150808,9.249933
1.644,89.80147,49.011047,53.605858,7.437623,-12.3136215,10.0932255
1.646,90.69972,55.008892,54.850258,7.651043,-12.474062,10.958969
1.648,91.56872,61.390682,56.24983,7.850488,-12.622226,11.845665
1.65,92.4012,68.11471,57.833,8.0381565,-12.747635,12.752426
1.652,93.21958,75.12401,59.636818,8.215753,-12.840042,13.679028
1.654,93.93665,82.36515,61.693047,8.385459,-12.88669,14.624947
1.656,94.52437,89.79573,64.01005,8.549242,-12.873583,15.589957
1.658,94.99594,97.37828,66.591156,8.707075,-12.789394,16.572977
1.66,95.35829,105.01906,69.55151,8.856757,-12.626405,17.57117
1.662,95.629684,112.62237,72.94509,8.992382,-12.380855,18.58257
1.664,95.83873,120.08777,76.74475,9.104632,-12.0534935,19.602833
1.666,96.00984,127.25884,80.83937,9.181369,-11.651026,20.624453
1.668,96.202866,134.05508,85.27391,9.207836,-11.183581,21.641916
1.67,96.26168,140.71179,90.170784,9.162426,-10.667486,22.65578
1.672,96.30424,146.85486,95.483246,9.027103,-10.1182,23.667639
1.674,96.767006,152.041,101.33704,8.801644,-9.533246,24.687498
1.676,97.38083,156.40279,107.50705,8.497029,-8.893523,25.72963
1.678,98.1557,159.99158,113.8678,8.122659,-8.192336,26.79433
1.68,99.16618,162.6409,120.37758,7.6925755,-7.4269133,27.88166
1.682,100.60769,164.20923,126.912865,7.2244844,-6.5577908,29.015734
1.684,102.469505,164.76318,133.37389,6.754339,-5.534503,30.23728
1.686,104.778946,164.37064,139.62306,6.341486,-4.2924166,31.582926
1.688,107.571465,163.07497,145.50066,6.0572886,-2.7540007,33.07505
1.69,110.84587,160.93477,150.83723,5.978397,-0.8356466,34.709858
1.692,114.569565,158.03549,155.45587,6.176216,1.5489035,36.434258
1.694,118.690834,154.47873,159.18573,6.695525,4.4670477,38.159336
1.696,123.1391,150.38513,161.8835,7.528452,7.9054394,39.809067
1.698,127.81929,145.89581,163.43951,8.621185,11.752074,41.275444
1.7,132.61395,141.16345,163.76492,9.94605,15.937506,42.39278
1.702,137.39087,136.3392,162.79637,11.439985,20.346043,42.990223
1.704,142.00403,131.56343,160.50629,12.932799,24.781742,42.975296
1.706,146.30333,126.96311,156.90814,14.239075,29.039635,42.2574
1.708,150.13707,122.648476,152.0503,15.19653,32.914104,40.77419
1.71,153.36458,118.70738,146.01675,15.654634,36.210606,38.51711
1.712,155.86111,115.20467,138.92146,15.492087,38.757145,35.539795
1.714,157.52104,112.18168,130.90993,14.646811,40.426956,31.929247
1.716,158.25916,109.655945,122.15581,13.124142,41.151554,27.78932
1.718,158.00914,107.63,112.85567,10.987722,40.9123,23.241337
1.72,156.74231,106.0738,103.217224,8.348743,39.74134,18.424599
1.722,154.46732,104.92491,93.4564,5.3512306,37.71714,13.4897585
1.724,151.21518,104.1113,83.788536,2.1522064,34.957237,8.594083
1.726,147.04335,103.55434,74.41908,-1.1085606,31.600405,3.9020271
1.728,142.0324,103.17984,65.53526,-4.325982,27.7883,-0.42994404
1.73,136.28644,102.91617,57.296154,-7.4214954,23.667864,-4.2596397
1.732,129.9339,102.69294,49.824768,-10.334755,19.40152,-7.46297
1.734,123.123566,102.432625,43.212597,-13.031073,15.1366825,-9.966353
1.736,115.98674,102.087456,37.524284,-15.4932995,10.973663,-11.765463
1.738,108.6736,101.61514,32.787796,-17.7236,7.0031853,-12.904164
1.74,101.33087,100.990875,29.00518,-19.73188,3.3007994,-13.452298
1.742,94.08769,100.22867,26.132336,-21.518589,-0.07260704,-13.499797
1.744,87.07829,99.31779,24.107346,-23.07501,-3.0685968,-13.145903
1.746,80.41226,98.255875,22.841955,-24.385307,-5.6516676,-12.481424
1.748,74.15507,97.087204,22.196173,-25.425556,-7.7871313,-11.599494
1.75,68.34975,95.86562,22.039938,-26.166924,-9.416351,-10.610165
1.752,63.07579,94.560104,22.26331,-26.600838,-10.487045,-9.574806
1.754,58.42085,93.22177,22.737864,-26.781063,-11.063374,-8.503031
1.756,54.28578,91.83505,23.471405,-26.734943,-11.191759,-7.4132934
1.758,50.60857,90.4497,24.344887,-26.429113,-10.889903,-6.3718615
1.76,47.418396,89.09281,25.26099,-25.874025,-10.217297,-5.396777
1.762,44.70119,87.78433,26.13274,-25.1167,-9.253464,-4.5029283
1.764,42.522858,86.52173,26.896776,-24.196518,-8.084743,-3.7230906
1.766,40.855038,85.28139,27.524534,-23.150738,-6.797852,-3.099855
1.768,39.62716,84.032906,27.995794,-22.029425,-5.487385,-2.6563344
1.77,38.783367,82.79149,28.210693,-20.886965,-4.2487445,-2.397523
1.772,38.26517,81.555664,28.168264,-19.77175,-3.1592622,-2.3198473
1.774,38.01555,80.316696,27.943554,-18.725422,-2.2788844,-2.4165182
1.776,37.992233,79.102844,27.652115,-17.782484,-1.6507692,-2.6751976
1.778,38.133453,77.861404,27.238403,-16.966413,-1.2987485,-3.0753877
1.78,38.56047,76.31987,26.61436,-16.288645,-1.2277856,-3.5883334
1.782,39.10864,74.81948,25.873577,-15.751112,-1.4276352,-4.1784673
1.784,39.42791,73.61359,24.94769,-15.348427,-1.8769045,-4.8060493
1.786,39.879128,72.38592,24.084347,-15.069475,-2.5451784,-5.4308224
1.788,40.44213,71.02783,23.346157,-14.898864,-3.3965998,-6.0164165
1.79,41.036625,69.67196,22.693829,-14.819061,-4.3940725,-6.5344915
1.792,41.5089,68.39534,22.160812,-14.811761,-5.5021133,-6.966795
1.794,41.925392,67.09707,21.740059,-14.858793,-6.6881285,-7.3049936
1.796,42.284595,65.744316,21.451084,-14.94269,-7.921883,-7.548838
1.798,42.564926,64.36879,21.316404,-15.047276,-9.175027,-7.7040834
1.8,42.768635,63.007328,21.351141,-15.158503,-10.422906,-7.780505
1.802,42.904644,61.687546,21.565554,-15.264284,-11.644553,-7.7896934
1.804,42.975784,60.43505,21.95831,-15.35361,-12.820866,-7.743186
1.806,42.981018,59.26626,22.507622,-15.416393,-13.934147,-7.651331
1.808,42.92286,58.185356,23.180033,-15.4438095,-14.968893,-7.522629
1.81,42.805984,57.191673,23.9506,-15.428718,-15.912464,-7.363327
1.812,42.63324,56.28643,24.800713,-15.365631,-16.755323,-7.177346
1.814,42.409073,55.474083,25.710499,-15.250547,-17.490765,-6.966629
1.816,42.136005,54.75763,26.658943,-15.080872,-18.115063,-6.732091
1.818,41.81514,54.139244,27.629797,-14.855669,-18.627857,-6.4745665
1.82,41.447983,53.61576,28.610968,-14.575649,-19.032238,-6.1955605
1.822,41.03212,53.181557,29.594332,-14.243055,-19.334473,-5.8975606
1.824,40.565872,52.82984,30.5696,-13.861479,-19.543447,-5.583983
1.826,40.055973,52.551437,31.522108,-13.435613,-19.670052,-5.259104
1.828,39.505024,52.33887,32.440037,-12.970893,-19.726376,-4.9277353
1.83,38.91022,52.1893,33.31455,-12.473167,-19.724846,-4.594865
1.832,38.26905,52.101334,34.13849,-11.948256,-19.677465,-4.2652197
1.834,37.58174,52.072117,34.90563,-11.401646,-19.59515,-3.9428248
1.836,36.849663,52.095222,35.61296,-10.83822,-19.487255,-3.6306524
1.838,36.072132,52.161522,36.262238,-10.262108,-19.361217,-3.3304024
1.84,35.2461,52.260487,36.85939,-9.676562,-19.222216,-3.0424895
1.842,34.36799,52.38224,37.41143,-9.083984,-19.073118,-2.766087
1.844,33.433544,52.517525,37.925514,-8.48596,-18.914553,-2.4994879
1.846,32.438316,52.657936,38.40856,-7.8834667,-18.745186,-2.240411
1.848,31.378819,52.795166,38.866905,-7.2770357,-18.562077,-1.9863646
1.85,30.25282,52.921776,39.30562,-6.666987,-18.361034,-1.7349482
1.852,29.058613,53.031914,39.72831,-6.0535345,-18.136986,-1.4840741
1.854,27.796331,53.1213,40.13705,-5.437002,-17.884472,-1.2320409
1.856,26.467367,53.18731,40.532505,-4.8179493,-17.598042,-0.97743297
1.858,25.074795,53.228508,40.914066,-4.1972394,-17.27265,-0.7190194
1.86,23.62304,53.243645,41.27947,-3.5761242,-16.903954,-0.45561266
1.862,22.118017,53.231518,41.625404,-2.9562654,-16.488535,-0.1859318
1.864,20.566442,53.190666,41.947647,-2.339692,-16.024057,0.091423154
1.866,18.974846,53.120335,42.24165,-1.7287688,-15.509286,0.37792563
1.868,17.350304,53.019882,42.502777,-1.1261129,-14.944078,0.67505985
1.87,15.700443,52.889217,42.72646,-0.5345144,-14.329317,0.9842991
1.872,14.033262,52.728104,42.907963,0.043093204,-13.666974,1.3068359
1.874,12.357494,52.536453,43.042576,0.60368323,-12.959991,1.6435179
1.876,10.681828,52.3151,43.126007,1.1442013,-12.212177,1.9946516
1.878,9.0138035,52.065945,43.154182,1.661671,-11.428091,2.3599815
1.88,7.3609543,51.79058,43.123478,2.1532078,-10.612973,2.7386637
1.882,5.7302284,51.49106,43.03126,2.6160407,-9.772696,3.1292546
1.884,4.1276894,51.16963,42.875492,3.0475698,-8.913604,3.5297687
1.886,2.5593328,50.828846,42.654194,3.4453332,-8.042436,3.937799
1.888,1.0307541,50.471268,42.366425,3.8070738,-7.1662316,4.3506017
1.89,-0.45278835,50.099625,42.01196,4.130779,-6.292121,4.765245
1.892,-1.8866253,49.71678,41.591446,4.4147377,-5.4271245,5.1787233
1.894,-3.2668705,49.32499,41.106285,4.657566,-4.5780244,5.5880127
1.896,-4.590708,48.926544,40.558743,4.8583193,-3.7511175,5.9901476
1.898,-5.855918,48.523308,39.951096,5.016539,-2.952047,6.382319
1.9,-7.061608,48.117424,39.28651,5.132382,-2.1855783,6.761816
1.902,-8.207138,47.710697,38.568485,5.2066445,-1.4554212,7.1260943
1.904,-9.293164,47.304638,37.800167,5.240833,-0.76412547,7.472846
1.906,-10.319994,46.900326,36.98474,5.2371254,-0.113073885,7.799979
1.908,-11.288289,46.49863,36.125423,5.1983776,0.49751705,8.105557
1.91,-12.199154,46.100304,35.2252,5.1280704,1.0684338,8.387816
1.912,-13.053265,45.70578,34.2865,5.030113,1.6012832,8.645248
1.914,-13.851317,45.315647,33.31151,4.9087787,2.0984256,8.876523
1.916,-14.594127,44.929943,32.30202,4.7686257,2.5627446,9.080604
1.918,-15.282474,44.548344,31.259315,4.614224,2.997293,9.256743
1.92,-15.917723,44.17074,30.184317,4.450087,3.405146,9.404467
1.922,-16.501238,43.796997,29.077333,4.2805853,3.7893248,9.523584
1.924,-17.03426,43.42697,27.93819,4.1098356,4.1526537,9.614212
1.926,-17.518463,43.060688,26.766312,3.9416282,4.49769,9.67677
1.928,-17.955301,42.697838,25.560692,3.7793148,4.826537,9.711917
1.93,-18.346767,42.33805,24.319984,3.6257415,5.140751,9.72054
1.932,-18.694618,41.981277,23.042816,3.4831576,5.4412994,9.703695
1.934,-19.001368,41.62758,21.727945,3.3532267,5.7285604,9.662609
1.936,-19.269156,41.27707,20.374416,3.2370381,6.0023484,9.5986
1.938,-19.50063,40.930325,18.981665,3.135109,6.261911,9.513077
1.94,-19.698023,40.587967,17.549448,3.0474596,6.506018,9.407511
1.942,-19.863777,40.25061,16.078194,2.9736667,6.7330594,9.28343
1.944,-20.00034,39.918816,14.569005,2.9129405,6.9411445,9.142342
1.946,-20.110325,39.59314,13.023802,2.8642025,7.128194,8.985633
1.948,-20.19585,39.273994,11.445723,2.826251,7.2920766,8.814593
1.95,-20.259478,38.961864,9.8386345,2.7978,7.430625,8.630452
1.952,-20.303276,38.65721,8.207463,2.7775888,7.5417576,8.434324
1.954,-20.328846,38.36041,6.5578837,2.764358,7.623417,8.227149
1.956,-20.33773,38.071598,4.8964353,2.756911,7.673725,8.009701
1.958,-20.331734,37.791153,3.2301419,2.7541575,7.6910143,7.7825775
1.96,-20.311642,37.518875,1.5670664,2.7551327,7.6739545,7.5462723
1.962,-20.27803,37.2544,-0.08433771,2.7590194,7.6216393,7.3013244
1.964,-20.231033,36.997223,-1.7151258,2.7651432,7.533678,7.048265
1.966,-20.170712,36.746704,-3.3161802,2.7730758,7.4103007,6.7876387
1.968,-20.096851,36.50186,-4.878188,2.7825103,7.2522798,6.5200796
1.97,-20.008831,36.26171,-6.3920403,2.793263,7.060994,6.2462096
1.972,-19.906452,36.02551,-7.8490367,2.8053331,6.8385224,5.966709
1.974,-19.788647,35.79219,-9.241026,2.8188462,6.587486,5.6823163
1.976,-19.654251,35.56046,-10.56063,2.8339744,6.310813,5.393784
1.978,-19.502132,35.329018,-11.801373,2.8509643,6.011659,5.1018534
1.98,-19.330975,35.09668,-12.957611,2.8701222,5.693341,4.8072534
1.982,-19.139683,34.862568,-14.024581,2.8917925,5.35916,4.5106807
1.984,-18.927563,34.626175,-14.998369,2.9163387,5.012278,4.212779
1.986,-18.693743,34.386642,-15.8760395,2.9441094,4.655629,3.914113
1.988,-18.437042,34.142857,-16.655262,2.9754229,4.2918806,3.615169
1.99,-18.156874,33.894386,-17.334835,3.01054,3.923417,3.3164012
1.992,-17.85257,33.64096,-17.914818,3.0496643,3.552363,3.01824
1.994,-17.523863,33.382393,-18.396065,3.0929756,3.180622,2.7211394
1.996,-17.170906,33.118694,-18.779537,3.140565,2.8098872,2.425601
1.998,-16.794321,32.850285,-19.067276,3.1924849,2.44166,2.1322422
2,-16.394638,32.577724,-19.261982,3.2487333,2.0772603,1.8417814
2.002,-15.972475,32.301487,-19.367037,3.3091884,1.7178655,1.5550153
2.004,-15.528229,32.022404,-19.386486,3.3736439,1.3645351,1.2727436
2.006,-15.062192,31.741255,-19.325058,3.4418125,1.018201,0.9958159
2.008,-14.574803,31.458824,-19.187199,3.5133646,0.67966855,0.7251195
2.01,-14.0668125,31.176165,-18.977913,3.5879145,0.34954095,0.4615109
2.012,-13.539087,30.89413,-18.702242,3.6650038,0.028289914,0.20573616
2.014,-12.991951,30.613861,-18.365326,3.7441192,-0.28373373,-0.041564822
2.016,-12.42664,30.33657,-17.97258,3.8247006,-0.5863077,-0.27991307
2.018,-11.8441925,30.063578,-17.529343,3.9061549,-0.8792947,-0.50896335
2.02,-11.246008,29.796173,-17.040733,3.9878433,-1.162645,-0.728523
2.022,-10.633738,29.535515,-16.511545,4.069144,-1.4363748,-0.9385562
2.024,-10.00877,29.282543,-15.946766,4.1494436,-1.700564,-1.139182
2.026,-9.372506,29.038319,-15.351189,4.2281055,-1.9553546,-1.3306899
2.028,-8.726888,28.80408,-14.729369,4.3044963,-2.2009091,-1.5135216
2.03,-8.072686,28.580349,-14.085758,4.3780203,-2.4373763,-1.688242
2.032,-7.41131,28.367592,-13.424171,4.4481316,-2.664885,-1.8555161
2.034,-6.7444286,28.16589,-12.7483225,4.5143385,-2.8835144,-2.0160542
2.036,-6.0738564,27.975447,-12.061576,4.5762534,-3.0932937,-2.1705341
2.038,-5.401271,27.79627,-11.3666935,4.63358,-3.2942438,-2.3195693
2.04,-4.7280607,27.628325,-10.666384,4.6861362,-3.4862888,-2.4636598
2.042,-4.0559196,27.47128,-9.962966,4.7338314,-3.669314,-2.6031995
2.044,-3.3860512,27.324635,-9.258626,4.7766647,-3.843112,-2.7384915
2.046,-2.7199783,27.18777,-8.5553055,4.814695,-4.0074425,-2.8698034
2.048,-2.059164,27.059792,-7.854678,4.848037,-4.162043,-2.9973917
2.05,-1.4052162,26.939957,-7.158086,4.8768663,-4.30662,-3.1215034
2.052,-0.7596178,26.827335,-6.466895,4.901382,-4.4408636,-3.2423666
2.054,-0.12368679,26.721216,-5.7820506,4.921802,-4.5644855,-3.3602345
2.056,0.50153446,26.62063,-5.104574,4.938368,-4.6772437,-3.4753766
2.058,1.1149964,26.52452,-4.4353676,4.951314,-4.7790008,-3.5880747
2.06,1.7158957,26.43175,-3.775175,4.960878,-4.8697057,-3.6986334
2.062,2.303433,26.34088,-3.1246285,4.9672756,-4.9493437,-3.8073292
2.064,2.876761,26.250633,-2.4842486,4.9707346,-5.017964,-3.9144068
2.066,3.4351628,26.159506,-1.8546047,4.9714856,-5.075665,-4.020028
2.068,3.9782155,26.066074,-1.235893,4.9697704,-5.122553,-4.124288
2.07,4.5050297,25.969076,-0.62872493,4.9658546,-5.1586823,-4.227176
2.072,5.0150743,25.867313,-0.03360179,4.9600563,-5.184046,-4.328592
2.074,5.507866,25.759298,0.5489517,4.952749,-5.198573,-4.4283676
2.076,5.983185,25.643726,1.1184484,4.9443483,-5.202143,-4.5262923
2.078,6.440693,25.519405,1.674167,4.935324,-5.1946273,-4.6221766
2.08,6.879963,25.385223,2.2155304,4.92618,-5.17593,-4.7158613
2.082,7.30097,25.239985,2.7418184,4.9174457,-5.146022,-4.807248
2.084,7.7032447,25.082949,3.2524378,4.909629,-5.1050057,-4.8963113
2.086,8.086848,24.913313,3.746665,4.9031916,-5.053131,-4.983066
2.088,8.451525,24.730783,4.2236834,4.898528,-4.9908376,-5.067533
2.09,8.797232,24.535011,4.6826205,4.89593,-4.918681,-5.1497126
2.092,9.124003,24.326107,5.1227436,4.8955846,-4.837329,-5.229547
2.094,9.431716,24.10428,5.543334,4.897539,-4.7476153,-5.306894
2.096,9.720539,23.87018,5.9436707,4.901701,-4.650426,-5.3815155
2.098,9.990636,23.624533,6.323062,4.9078703,-4.546689,-5.453065
2.1,10.2425,23.368275,6.680855,4.915724,-4.437345,-5.5211067
2.102,10.476168,23.102474,7.0164375,4.9248357,-4.323323,-5.5851784
2.104,10.6921835,22.828428,7.3295856,4.9347086,-4.2055416,-5.64483
2.106,10.890832,22.547499,7.6200194,4.944805,-4.084892,-5.6996856
2.108,11.072951,22.261185,7.887484,4.954554,-3.9622116,-5.7494345
2.11,11.238919,21.970894,8.131913,4.9633904,-3.8382592,-5.793859
2.112,11.389361,21.678362,8.353107,4.970757,-3.7136986,-5.832837
2.114,11.524943,21.385145,8.551138,4.9761343,-3.5891519,-5.8663487
2.116,11.6464815,21.092754,8.72633,4.9790273,-3.4651933,-5.89449
2.118,11.754722,20.802603,8.879108,4.9789796,-3.3423371,-5.917445
2.12,11.850643,20.515728,9.00995,4.975581,-3.2210708,-5.935514
2.122,11.9349165,20.233501,9.119225,4.9684615,-3.101875,-5.949094
2.124,12.008274,19.956696,9.2076845,4.9572597,-2.9852366,-5.9586525
2.126,12.071518,19.686167,9.27601,4.941656,-2.871635,-5.9646826
2.128,12.12562,19.42259,9.324806,4.921364,-2.7615035,-5.9677
2.13,12.171469,19.166515,9.354846,4.896114,-2.6552782,-5.968165
2.132,12.2101145,18.918457,9.36663,4.865647,-2.5533268,-5.96649
2.134,12.242337,18.678648,9.360971,4.829755,-2.4559498,-5.963034
2.136,12.268864,18.447401,9.33867,4.7882714,-2.3633065,-5.9580393
2.138,12.290773,18.224566,9.300619,4.7411013,-2.275427,-5.951659
2.14,12.308704,18.010262,9.247586,4.6882257,-2.1921747,-5.943952
2.142,12.323515,17.804409,9.180483,4.6297307,-2.113263,-5.9349256
2.144,12.336136,17.606943,9.1,4.5657883,-2.0382738,-5.924543
2.146,12.347592,17.417719,9.00686,4.496677,-1.9666965,-5.9127584
2.148,12.358704,17.236551,8.901686,4.4227815,-1.8979231,-5.8994994
2.15,12.37026,17.063255,8.785201,4.344585,-1.8312855,-5.88471
2.152,12.383274,16.8976,8.657991,4.262638,-1.7661111,-5.868346
2.154,12.398646,16.73921,8.520735,4.1775174,-1.7017386,-5.8503914
2.156,12.417309,16.587864,8.374183,4.0897965,-1.6376245,-5.830878
2.158,12.440036,16.443165,8.219143,4.0000067,-1.5733371,-5.8099113
2.16,12.467627,16.304853,8.056456,3.908596,-1.5086718,-5.787683
2.162,12.500887,16.17252,7.887181,3.8158987,-1.4436492,-5.764482
2.164,12.540182,16.045874,7.712245,3.722098,-1.3785386,-5.740675
2.166,12.586264,15.9245825,7.53267,3.6272411,-1.3138524,-5.7166944
2.168,12.639535,15.808389,7.349579,3.5312216,-1.2502954,-5.692993
2.17,12.700359,15.6969385,7.1640882,3.4338179,-1.1887069,-5.6700163
2.172,12.769009,15.590112,6.9773326,3.334732,-1.1299841,-5.648129
2.174,12.8456545,15.487658,6.7904253,3.2336488,-1.0749755,-5.627596
2.176,12.930346,15.389639,6.604459,3.1302736,-1.0244253,-5.608529
2.178,13.023141,15.295858,6.4204826,3.024446,-0.9788685,-5.590927
2.18,13.12373,15.206375,6.2394915,2.9161222,-0.9386313,-5.574682
2.182,13.232014,15.121211,6.0624256,2.805458,-0.903816,-5.559582
2.184,13.347534,15.040637,5.889934,2.6928499,-0.8742535,-5.5453854
2.186,13.469875,14.964754,5.7226076,2.5788856,-0.8495997,-5.5318537
2.188,13.598564,14.893654,5.560917,2.4643502,-0.8293692,-5.518801
2.19,13.733267,14.827618,5.40512,2.3501625,-0.81300634,-5.5061197
2.192,13.873196,14.766842,5.2554493,2.2373216,-0.7999244,-5.493828
2.194,14.017799,14.711462,5.1118865,2.1268506,-0.789599,-5.482021
2.196,14.166263,14.661694,4.974554,2.0197186,-0.78159964,-5.4708667
2.198,14.317995,14.617618,4.8433886,1.9167962,-0.7756124,-5.460557
2.2,14.472255,14.579357,4.7183213,1.8188016,-0.7714509,-5.4513297
2.202,14.628162,14.546888,4.599294,1.7262641,-0.7690888,-5.443417
2.204,14.785108,14.520333,4.486041,1.6395229,-0.76862997,-5.437023
2.206,14.942206,14.499472,4.378501,1.5587416,-0.77024555,-5.432302
2.208,15.098746,14.484364,4.276695,1.4839478,-0.7741078,-5.429341
2.21,15.25374,14.474901,4.1804886,1.4150383,-0.780317,-5.428113
2.212,15.406618,14.470997,4.0898924,1.35184,-0.7888926,-5.4285197
2.214,15.556604,14.472584,4.0049067,1.2941309,-0.79966617,-5.430348
2.216,15.703145,14.479591,3.925462,1.2417094,-0.81228906,-5.4332952
2.218,15.845525,14.491889,3.8518198,1.1944098,-0.8262387,-5.437001
2.22,15.983208,14.509457,3.784061,1.1520767,-0.84086263,-5.4410343
2.222,16.115788,14.532036,3.7222905,1.1146314,-0.85540754,-5.444924
2.224,16.242699,14.55959,3.6663742,1.0820518,-0.8690358,-5.448195
2.226,16.363626,14.591961,3.616198,1.0543547,-0.8808949,-5.4504104
2.228,16.478365,14.629058,3.5714238,1.031604,-0.8901591,-5.4511566
2.23,16.586702,14.670896,3.5315404,1.0138819,-0.89610904,-5.4501033
2.232,16.688656,14.717044,3.4963613,1.0012364,-0.89817953,-5.447017
2.234,16.783995,14.767517,3.4654,0.99371123,-0.89596295,-5.441743
2.236,16.873093,14.821906,3.4383798,0.9912999,-0.8892271,-5.4342504
2.238,16.955906,14.879948,3.4149196,0.99394906,-0.8779461,-5.4245944
2.24,17.032724,14.941305,3.3944123,1.0015275,-0.86227804,-5.412904
2.242,17.103785,15.005681,3.3764765,1.0138652,-0.8425372,-5.3993826
2.244,17.169333,15.072684,3.360536,1.0307178,-0.8191482,-5.3842516
2.246,17.229868,15.141844,3.3461177,1.051793,-0.79259664,-5.367711
2.248,17.286,15.212906,3.3324504,1.0767641,-0.76336783,-5.349961
2.25,17.338343,15.2854805,3.319024,1.1052893,-0.73193264,-5.3311005
2.252,17.387331,15.359148,3.304965,1.1370254,-0.69866914,-5.311165
2.254,17.433811,15.43357,3.2899337,1.1716585,-0.6638941,-5.2900586
2.256,17.478317,15.508375,3.2731128,1.208914,-0.6278379,-5.267573
2.258,17.52156,15.583253,3.254003,1.2485523,-0.5906583,-5.243395
2.26,17.564224,15.657886,3.2318568,1.2903897,-0.5524527,-5.2171354
2.262,17.606913,15.7318325,3.2062192,1.3342965,-0.513311,-5.188387
2.264,17.650219,15.804771,3.176474,1.3801725,-0.473346,-5.156744
2.266,17.694736,15.876077,3.1421657,1.4279222,-0.4327078,-5.121887
2.268,17.740915,15.945165,3.1027904,1.4774451,-0.39167106,-5.0836425
2.27,17.789202,16.011316,3.0580678,1.5285825,-0.35060692,-5.0420213
2.272,17.839806,16.073732,3.0077457,1.5811301,-0.3100021,-4.9972324
2.274,17.892971,16.131369,2.95184,1.6348226,-0.2704562,-4.9496794
2.276,17.948414,16.183317,2.8903556,1.6892825,-0.2326802,-4.8999352
2.278,18.006018,16.228268,2.8235822,1.7440443,-0.19750476,-4.8486786
2.28,18.06538,16.26497,2.7518992,1.798571,-0.16582799,-4.796661
2.282,18.125935,16.29202,2.6759038,1.8522602,-0.1385169,-4.7446475
2.284,18.18704,16.307878,2.5961485,1.9045024,-0.11635935,-4.6933618
2.286,18.247814,16.311155,2.5134697,1.9547027,-0.10002792,-4.6434493
2.288,18.307175,16.300468,2.4285989,2.0022883,-0.09001207,-4.59544
2.29,18.364187,16.274426,2.342494,2.0467625,-0.08658457,-4.5497236
2.292,18.417706,16.231953,2.2561598,2.0877512,-0.08975518,-4.5065727
2.294,18.466717,16.17188,2.170557,2.1250157,-0.099267006,-4.4661217
2.296,18.510002,16.0935,2.0865893,2.1584556,-0.11466217,-4.428346
2.298,18.546574,15.996343,2.0052423,2.1881242,-0.13531852,-4.3931255
2.3,18.575283,15.8800535,1.9273744,2.214208,-0.16049623,-4.3602347
2.302,18.595493,15.7446375,1.8536034,2.2370043,-0.1893959,-4.329357
2.304,18.606457,15.5904455,1.7845216,2.256906,-0.22125053,-4.300125
2.306,18.607597,15.418034,1.720427,2.2743359,-0.25538278,-4.272125
2.308,18.59846,15.228326,1.6617079,2.2897258,-0.29121816,-4.244932
2.31,18.578697,15.022538,1.6085291,2.303487,-0.3283161,-4.218138
2.312,18.54837,14.802054,1.5608797,2.3159971,-0.3663683,-4.1913686
2.314,18.507349,14.568542,1.5186882,2.3275454,-0.40520215,-4.1642876
2.316,18.455925,14.32382,1.4817262,2.3383706,-0.44474125,-4.136631
2.318,18.394295,14.069733,1.4496832,2.3486333,-0.48497272,-4.1082225
2.32,18.322985,13.808298,1.422288,2.3584409,-0.5259111,-4.078956
2.322,18.242485,13.541354,1.3989654,2.3678627,-0.5675732,-4.0487947
2.324,18.153416,13.270855,1.3793459,2.3769224,-0.60998917,-4.0177736
2.326,18.05637,12.998634,1.3628411,2.385614,-0.6531707,-3.9860241
2.328,17.95186,12.72649,1.3489714,2.3939013,-0.6970993,-3.9537296
2.33,17.840736,12.4559765,1.3372002,2.401737,-0.7417468,-3.9211316
2.332,17.723598,12.1886425,1.3270111,2.4090345,-0.7870562,-3.8885078
2.334,17.60117,11.925776,1.3180952,2.4156773,-0.8329793,-3.8561358
2.336,17.474009,11.668578,1.3100038,2.4215279,-0.87950015,-3.8242822
2.338,17.342691,11.417863,1.302424,2.426408,-0.92661417,-3.7932038
2.34,17.207891,11.174404,1.2951689,2.430149,-0.9743074,-3.7631125
2.342,17.07011,10.938924,1.2876806,2.4325879,-1.022575,-3.7341897
2.344,16.92997,10.711784,1.279654,2.4335623,-1.0714058,-3.7065458
2.346,16.787827,10.4933,1.2707472,2.4329195,-1.120764,-3.6802237
2.348,16.644184,10.283601,1.2606497,2.4305606,-1.1705873,-3.6552162
2.35,16.499596,10.082646,1.2492466,2.4264045,-1.2207447,-3.6314673
2.352,16.3545,9.890237,1.2363477,2.4204233,-1.271069,-3.6088626
2.354,16.2092,9.706326,1.221837,2.4126263,-1.3213673,-3.587238
2.356,16.064322,9.530477,1.2055645,2.4030368,-1.3714254,-3.566395
2.358,15.919958,9.362477,1.1875334,2.3917108,-1.4210025,-3.5461318
2.36,15.776644,9.201744,1.1677828,2.3787158,-1.4698703,-3.5262346
2.362,15.634839,9.047933,1.1463623,2.3641205,-1.5178121,-3.506498
2.364,15.494756,8.900473,1.1232009,2.3479831,-1.5646727,-3.486738
2.366,15.356858,8.758848,1.0985012,2.3303347,-1.6103239,-3.466819
2.368,15.2213955,8.62243,1.0722795,2.3112068,-1.6546674,-3.446644
2.37,15.088694,8.490644,1.0446839,2.2906003,-1.6976546,-3.4261525
2.372,14.959028,8.36294,1.0156469,2.2684925,-1.739266,-3.4053266
2.374,14.832669,8.238586,0.9854388,2.244861,-1.7795165,-3.3841915
2.376,14.709829,8.117093,0.9541092,2.2196763,-1.8184253,-3.362816
2.378,14.590675,7.997896,0.9220042,2.192934,-1.8560082,-3.3413072
2.38,14.475308,7.880374,0.8891792,2.1646507,-1.8922701,-3.319776
2.382,14.363894,7.7639575,0.8561425,2.1349041,-1.9271802,-3.29837
2.384,14.256605,7.648111,0.8230853,2.1038105,-1.9606603,-3.2772362
2.386,14.153337,7.5321836,0.79048014,2.0715349,-1.9926147,-3.2565322
2.388,14.054076,7.415809,0.7587061,2.038288,-2.022907,-3.2363944
2.39,13.9587555,7.2984905,0.7282891,2.0043104,-2.0513992,-3.216963
2.392,13.867293,7.1797895,0.69966936,1.9698585,-2.0779607,-3.1983724
2.394,13.779375,7.0594544,0.6733508,1.9351819,-2.1025016,-3.180751
2.396,13.694828,6.936931,0.6497712,1.9005287,-2.1249473,-3.1642215
2.398,13.613498,6.812151,0.6293123,1.8661244,-2.1452582,-3.148899
2.4,13.535077,6.684973,0.6123657,1.8321583,-2.163432,-3.1348696
2.402,13.459342,6.5551925,0.5992613,1.7987825,-2.1794653,-3.1221733
2.404,13.385855,6.422904,0.590127,1.7661294,-2.1933548,-3.1108046
2.406,13.314547,6.288094,0.58507776,1.7343156,-2.2050512,-3.1006894
2.408,13.244893,6.150986,0.58396006,1.7034248,-2.2144697,-3.0916958
2.41,13.17673,6.01188,0.58665824,1.6735545,-2.221478,-3.0836382
2.412,13.109681,5.8711367,0.5930188,1.6447879,-2.2259114,-3.0762684
2.414,13.043551,5.729105,0.6025934,1.6172255,-2.2275553,-3.0693192
2.416,12.97802,5.586319,0.6150067,1.5909959,-2.2261672,-3.0625124
2.418,12.913007,5.443306,0.62955713,1.5662292,-2.221503,-3.0555744
2.42,12.848353,5.3006334,0.6456344,1.5430893,-2.2133486,-3.0482464
2.422,12.783718,5.1589494,0.6625755,1.5217435,-2.2015445,-3.0403302
2.424,12.71905,5.0188665,0.6797519,1.5023681,-2.185977,-3.0316546
2.426,12.654142,4.8811803,0.69631195,1.4851472,-2.166601,-3.0221121
2.428,12.588912,4.746471,0.7116132,1.4702394,-2.143443,-3.0116243
2.43,12.523286,4.615408,0.72501063,1.4577856,-2.116622,-3.000156
2.432,12.457256,4.488671,0.735955,1.4478828,-2.0863209,-2.9876943
2.434,12.390756,4.3668365,0.7437521,1.440591,-2.0528038,-2.9742577
2.436,12.323694,4.2505226,0.7480141,1.4359268,-2.0163875,-2.9598825
2.438,12.256224,4.1401563,0.7482773,1.433855,-1.9774287,-2.9445963
2.44,12.188301,4.0362463,0.74436903,1.434316,-1.936285,-2.9284296
2.442,12.119955,3.9392042,0.73602414,1.4372135,-1.8932916,-2.911417
2.444,12.051491,3.849266,0.72309196,1.4424416,-1.8487707,-2.89357
2.446,11.982838,3.7667212,0.70557964,1.449869,-1.803,-2.8748775
2.448,11.91423,3.691825,0.6834874,1.4593687,-1.7562257,-2.8553255
2.45,11.8458185,3.6245382,0.65703344,1.4708143,-1.7086549,-2.8348942
2.452,11.777793,3.5649314,0.6264392,1.4840809,-1.6604333,-2.8135667
2.454,11.710297,3.5127702,0.59196305,1.4990575,-1.6116865,-2.7913399
2.456,11.643577,3.4679508,0.5537442,1.5156261,-1.5625236,-2.768224
2.458,11.577803,3.4302073,0.5120239,1.5336742,-1.5130353,-2.7442474
2.46,11.513381,3.399261,0.46703243,1.5530827,-1.4633024,-2.719462
2.462,11.450352,3.3748317,0.4189713,1.5737402,-1.4133987,-2.6939373
2.464,11.389149,3.3564205,0.36811817,1.5955142,-1.3634118,-2.6677542
2.466,11.329852,3.3436856,0.31474525,1.6182842,-1.3134283,-2.6410263
2.468,11.272836,3.3360147,0.25913227,1.641908,-1.2635479,-2.6138418
2.47,11.218151,3.3330483,0.20139885,1.6662457,-1.2138894,-2.5863063
2.472,11.166139,3.334165,0.14183742,1.6911589,-1.1645715,-2.5585318
2.474,11.116982,3.3388002,0.0805074,1.7164993,-1.1157295,-2.5306087
2.476,11.070847,3.3465326,0.017515719,1.7421368,-1.0675135,-2.5026178
2.478,11.027996,3.3568041,-0.047121942,1.7679461,-1.0200928,-2.474627
2.48,10.98866,3.3690908,-0.11333156,1.7938055,-0.9736582,-2.4466887
2.482,10.952885,3.3829858,-0.18096662,1.8196135,-0.928417,-2.418861
2.484,10.920876,3.3981128,-0.2500764,1.845275,-0.8845736,-2.3911748
2.486,10.89273,3.4140587,-0.32052594,1.8707199,-0.84234107,-2.3636527
2.488,10.868634,3.4305618,-0.39237112,1.8958786,-0.80191517,-2.3363073
2.49,10.848727,3.4474485,-0.46542364,1.9206977,-0.7634925,-2.3091292
2.492,10.833135,3.464528,-0.539754,1.9451371,-0.72726023,-2.2821112
2.494,10.821942,3.481717,-0.6149576,1.9691644,-0.6933864,-2.255237
2.496,10.815517,3.4989119,-0.69094294,1.9927493,-0.6620248,-2.228484
2.498,10.813797,3.516181,-0.76749474,2.0158694,-0.6332878,-2.2018323
2.5,10.816991,3.5334597,-0.84423816,2.0385082,-0.60728323,-2.1752667
2.502,10.82519,3.5509577,-0.92086375,2.06065,-0.5840922,-2.1487913
2.504,10.838677,3.568626,-0.9968409,2.0822594,-0.56380415,-2.1224256
2.506,10.857479,3.5868025,-1.0717432,2.1033168,-0.5465189,-2.0962029
2.508,10.881713,3.605464,-1.1450984,2.123776,-0.5323281,-2.070212
2.51,10.911492,3.6247802,-1.2164098,2.1435807,-0.5213496,-2.0445569
2.512,10.94689,3.6450543,-1.285174,2.1626668,-0.5137162,-2.019382
2.514,10.988259,3.666388,-1.350855,2.1809764,-0.5095539,-1.994865
2.516,11.035544,3.689146,-1.4128901,2.1984482,-0.5089699,-1.9711823
2.518,11.088891,3.713531,-1.4708781,2.215034,-0.51203895,-1.9485191
2.52,11.148325,3.7397065,-1.5243865,2.2306912,-0.5187634,-1.9270196
2.522,11.213989,3.7679896,-1.5731244,2.2454119,-0.52908623,-1.9068121
2.524,11.28602,3.798632,-1.6168578,2.2592204,-0.5428746,-1.8879408
2.526,11.364481,3.8318696,-1.6556177,2.2721684,-0.5599252,-1.8703808
2.528,11.449372,3.8679209,-1.6893307,2.2843304,-0.57998514,-1.8540528
2.53,11.5406685,3.9069028,-1.7182488,2.2958145,-0.60276437,-1.8388207
2.532,11.638598,3.9490523,-1.742636,2.306751,-0.62796545,-1.8245192
2.534,11.742971,3.994492,-1.7629352,2.3172808,-0.655319,-1.8109734
2.536,11.853715,4.0432525,-1.7794347,2.3275504,-0.6846082,-1.7980199
2.538,11.970617,4.0954695,-1.7927696,2.337692,-0.7157184,-1.785545
2.54,12.093434,4.151183,-1.8035743,2.3478272,-0.7486137,-1.7734916
2.542,12.221903,4.2103505,-1.812367,2.35806,-0.7833653,-1.7618788
2.544,12.355716,4.272828,-1.8197786,2.3684435,-0.82013494,-1.7507987
2.546,12.494449,4.338547,-1.8263501,2.3790076,-0.85914993,-1.7403921
2.548,12.637594,4.407186,-1.8327723,2.3897483,-0.90069294,-1.7308384
2.55,12.784522,4.478577,-1.8396008,2.400638,-0.9450669,-1.7223495
2.552,12.934487,4.5523725,-1.8472066,2.4116318,-0.9925595,-1.7151153
2.554,13.086755,4.62829,-1.856049,2.422688,-1.0434339,-1.7093189
2.556,13.240587,4.705879,-1.8664601,2.4337704,-1.0978866,-1.7050712
2.558,13.3951,4.784741,-1.878754,2.444855,-1.1560256,-1.7024293
2.56,13.54934,4.864566,-1.8930804,2.4559462,-1.2178817,-1.7013688
2.562,13.702347,4.9447966,-1.9095948,2.4670656,-1.2833825,-1.7018126
2.564,13.853224,5.025207,-1.9282824,2.4782653,-1.352386,-1.703654
2.566,14.000973,5.105128,-1.9490702,2.489596,-1.424678,-1.7067294
2.568,14.144921,5.184093,-1.9719684,2.501115,-1.4999791,-1.7108694
2.57,14.284102,5.261634,-1.9968103,2.5128663,-1.5779836,-1.715913
2.572,14.417839,5.3372684,-2.0232568,2.5248814,-1.6583879,-1.7217228
2.574,14.545398,5.410584,-2.0511532,2.5371451,-1.7409155,-1.728176
2.576,14.666178,5.4810824,-2.080172,2.5496202,-1.8253285,-1.7351936
2.578,14.77986,5.5483613,-2.1099973,2.5622075,-1.9114546,-1.7427466
2.58,14.886073,5.61204,-2.1402416,2.5747736,-1.9992099,-1.750844
2.582,14.984492,5.671789,-2.1704807,2.58715,-2.0885851,-1.7595296
2.584,15.075008,5.727361,-2.200145,2.5991457,-2.1796126,-1.7688639
2.586,15.157565,5.7782726,-2.2287793,2.6105757,-2.2723873,-1.7788966
2.588,15.232307,5.82431,-2.255764,2.6212342,-2.3670387,-1.7897133
2.59,15.2993145,5.8651986,-2.2805421,2.6309297,-2.463677,-1.8013924
2.592,15.358937,5.9008827,-2.302732,2.6395326,-2.5623178,-1.8139911
2.594,15.411409,5.9310684,-2.3218422,2.6469402,-2.6629062,-1.8275168
2.596,15.457109,5.9557104,-2.3373837,2.6531203,-2.7652903,-1.841922
2.598,15.496532,5.9746714,-2.3489301,2.6581151,-2.8692245,-1.8571177
2.6,15.529938,5.987956,-2.3561687,2.6620276,-2.9743629,-1.8729498
2.602,15.557916,5.995797,-2.358842,2.6650376,-3.0802655,-1.8892056
2.604,15.580955,5.998288,-2.3568308,2.6673803,-3.1864228,-1.9056334
2.606,15.599417,5.995722,-2.349976,2.669356,-3.2922747,-1.9219629
2.608,15.614059,5.9882894,-2.3383026,2.671297,-3.3972137,-1.9378947
2.61,15.62523,5.976434,-2.3219266,2.673568,-3.5006373,-1.953165
2.612,15.633392,5.9604793,-2.300961,2.6765482,-3.6019711,-1.9675376
2.614,15.639042,5.941026,-2.275681,2.6805875,-3.700681,-1.9808275
2.616,15.642619,5.918464,-2.246293,2.6860087,-3.7962937,-1.9928513
2.618,15.64447,5.893266,-2.2130013,2.693086,-3.8884137,-2.003486
2.62,15.644963,5.866107,-2.176141,2.7020261,-3.9767413,-2.012667
2.622,15.644437,5.83736,-2.13602,2.71297,-4.0611,-2.02035
2.624,15.642981,5.807517,-2.0929148,2.725981,-4.141394,-2.0265465
2.626,15.641003,5.7770166,-2.047078,2.7410598,-4.217649,-2.0313072
2.628,15.638662,5.7462893,-1.9987154,2.7581496,-4.2899613,-2.0347505
2.63,15.636123,5.715831,-1.947932,2.7771523,-4.358506,-2.03703
2.632,15.633456,5.686004,-1.8947663,2.7979426,-4.423508,-2.03835
2.634,15.630614,5.6570663,-1.8392305,2.8203912,-4.4852157,-2.038947
2.636,15.627774,5.629477,-1.7811346,2.8443742,-4.543864,-2.039075
2.638,15.624912,5.6034203,-1.720278,2.8697686,-4.5996895,-2.0389943
2.64,15.621996,5.5793066,-1.6565058,2.8964674,-4.6528673,-2.0389433
2.642,15.61895,5.557332,-1.5896003,2.9244108,-4.703494,-2.0390663
2.644,15.615901,5.5377197,-1.5192742,2.953555,-4.751616,-2.0394585
2.646,15.612683,5.520704,-1.4452741,2.983849,-4.79724,-2.0401316
2.648,15.609451,5.5064163,-1.3673863,3.0152907,-4.8402877,-2.041034
2.65,15.606012,5.4950433,-1.285233,3.047884,-4.8806143,-2.0420332
2.652,15.60235,5.4867935,-1.1987214,3.0816443,-4.9180202,-2.0429354
2.654,15.598402,5.4818835,-1.1076574,3.116611,-4.9522967,-2.043522
2.656,15.594204,5.480406,-1.0118866,3.15284,-4.98324,-2.043571
2.658,15.589685,5.4825683,-0.91131544,3.190374,-5.010644,-2.042856
2.66,15.584934,5.488455,-0.80581427,3.2292762,-5.034346,-2.0411775
2.662,15.580124,5.498185,-0.69551086,3.269607,-5.0542192,-2.0383878
2.664,15.575093,5.511713,-0.58029985,3.3114297,-5.0701885,-2.0343595
2.666,15.569982,5.5290947,-0.46031094,3.3547802,-5.08222,-2.0290275
2.668,15.564806,5.5502586,-0.33554125,3.3997073,-5.090316,-2.0223508
2.67,15.559603,5.5751114,-0.20625019,3.4462442,-5.094541,-2.0143557
2.672,15.554472,5.6035423,-0.07235861,3.494399,-5.0949764,-2.0050898
2.674,15.549343,5.635266,0.06588602,3.5441737,-5.0917277,-1.9946257
2.676,15.544212,5.670245,0.20839024,3.5955634,-5.0848904,-1.9830419
2.678,15.538868,5.7082925,0.35509872,3.648565,-5.07457,-1.9704043
2.68,15.53318,5.7490177,0.50575924,3.703162,-5.060849,-1.9567875
2.682,15.527344,5.791956,0.6602411,3.7593436,-5.0438004,-1.9422232
2.684,15.52109,5.836774,0.81841135,3.8170824,-5.0234437,-1.9267186
2.686,15.514193,5.8830748,0.9801526,3.8763676,-4.9997916,-1.9102645
2.688,15.506521,5.930421,1.1453428,3.9371772,-4.972794,-1.8928126
2.69,15.497906,5.9784765,1.3139601,3.999493,-4.9424067,-1.874292
2.692,15.488242,6.0267754,1.4858441,4.0633073,-4.9085445,-1.8546124
2.694,15.477011,6.074973,1.6608806,4.128605,-4.8710995,-1.8336565
2.696,15.464128,6.1228266,1.8389654,4.195379,-4.829958,-1.811301
2.698,15.449298,6.170006,2.019988,4.263627,-4.7850165,-1.78741
2.7,15.432341,6.216214,2.2037969,4.333345,-4.7361865,-1.761856
2.702,15.413012,6.2609043,2.3904266,4.404517,-4.683403,-1.7344985
2.704,15.391026,6.304147,2.579894,4.477131,-4.6266346,-1.7052062
2.706,15.366129,6.3457932,2.77204,4.551175,-4.5659056,-1.6738582
2.708,15.338111,6.3856425,2.9669495,4.626625,-4.5012817,-1.6403577
2.71,15.306801,6.4235597,3.1645808,4.7034397,-4.432872,-1.6046247
2.712,15.271898,6.4594717,3.365086,4.781582,-4.3608155,-1.5665832
2.714,15.233228,6.493346,3.5684247,4.8609953,-4.285282,-1.5261521
2.716,15.190765,6.5251927,3.7745998,4.9416046,-4.2064652,-1.4832711
2.718,15.144249,6.5549603,3.983718,5.0233297,-4.1245284,-1.4378943
2.72,15.093735,6.5826015,4.195906,5.1060853,-4.0396495,-1.3899806
2.722,15.0391,6.608083,4.411195,5.1897745,-3.951982,-1.3394914
2.724,14.980265,6.6313305,4.6296296,5.274296,-3.86164,-1.2863786
2.726,14.917244,6.6524143,4.851237,5.35954,-3.7687116,-1.2306337
2.728,14.849905,6.67155,5.0761194,5.4453955,-3.6732628,-1.1722293
2.73,14.778265,6.688571,5.3043613,5.5317397,-3.5753405,-1.1111133
2.732,14.702398,6.7035847,5.5358686,5.618444,-3.4749575,-1.0472319
2.734,14.622225,6.7168255,5.7706814,5.705373,-3.3721313,-0.9804969
2.736,14.537741,6.7281494,6.008712,5.792358,-3.2668722,-0.9108362
2.738,14.4491415,6.737513,6.24991,5.8792176,-3.1591985,-0.83817196
2.74,14.356446,6.7448397,6.4941406,5.965762,-3.0491216,-0.7624545
2.742,14.259883,6.750046,6.741108,6.0517855,-2.9366746,-0.68366313
2.744,14.159434,6.7532887,6.9906406,6.137086,-2.8218956,-0.60181665
2.746,14.055024,6.754386,7.242508,6.2214556,-2.7048542,-0.51697445
2.748,13.946571,6.7535844,7.49626,6.304702,-2.58564,-0.4292152
2.75,13.834134,6.7507224,7.751693,6.386647,-2.4643607,-0.33862424
2.752,13.717861,6.745751,8.008604,6.4671354,-2.341132,-0.24528861
2.754,13.597615,6.73859,8.266778,6.5460396,-2.216085,-0.14927983
2.756,13.473436,6.7291174,8.525787,6.623266,-2.089351,-0.050645113
2.758,13.34512,6.717311,8.785512,6.6987305,-1.961041,0.0505805
2.76,13.212785,6.703126,9.045459,6.772351,-1.8312427,0.15439034
2.762,13.075986,6.6864758,9.305494,6.8440537,-1.7000345,0.26078963
2.764,12.9346695,6.6673994,9.565287,6.9137697,-1.5674423,0.36977458
2.766,12.788779,6.645964,9.824381,6.981435,-1.4334806,0.48132515
2.768,12.638202,6.6222143,10.082664,7.0469575,-1.2981197,0.595392
2.77,12.482997,6.5960245,10.339682,7.1102715,-1.1613041,0.7119448
2.772,12.323162,6.5672064,10.595273,7.1713,-1.0229878,0.83091974
2.774,12.158595,6.5358734,10.848929,7.2299547,-0.8831266,0.9521878
2.776,11.9892,6.502123,11.100339,7.286138,-0.74171275,1.0755782
2.778,11.814946,6.465946,11.349129,7.3397336,-0.5987923,1.2008665
2.78,11.636309,6.4272966,11.59484,7.3905997,-0.4544673,1.3277695
2.782,11.453105,6.3863206,11.836996,7.438567,-0.30888388,1.45595
2.784,11.265911,6.342991,12.075079,7.4834194,-0.16222084,1.5850277
2.786,11.074972,6.297364,12.308477,7.524934,-0.014698505,1.7146225
2.788,10.880942,6.249277,12.536482,7.5628624,0.1334483,1.8443723
2.79,10.684322,6.1989336,12.758419,7.5969267,0.281964,1.9739586
2.792,10.48543,6.1465282,12.973343,7.6268806,0.430629,2.103104
2.794,10.285252,6.0920053,13.180526,7.65246,0.5792707,2.2316103
2.796,10.084276,6.0356236,13.378963,7.673433,0.7277646,2.3593326
2.798,9.883134,5.9776387,13.567808,7.6896243,0.87612236,2.486238
2.8,9.682489,5.9182124,13.746101,7.700971,1.0244951,2.6123824
2.802,9.482814,5.857893,13.91296,7.7074842,1.1731526,2.737918
2.804,9.284756,5.7971,14.067639,7.709262,1.3224394,2.863068
2.806,9.088493,5.7364426,14.209345,7.7064576,1.4727082,2.9880855
2.808,8.894247,5.676633,14.337419,7.6992884,1.6243129,3.113198
2.81,8.70196,5.6186333,14.451424,7.6879797,1.7775209,3.2386029
2.812,8.51129,5.5634165,14.5508585,7.672745,1.9324784,3.3643909
2.814,8.32209,5.511895,14.63553,7.653796,2.089199,3.490547
2.816,8.133429,5.4651446,14.7054405,7.6312714,2.2475333,3.616921
2.818,7.9442844,5.4246583,14.760747,7.605247,2.4071352,3.7432275
2.82,7.7532387,5.3918166,14.801983,7.5757327,2.567528,3.8690684
2.822,7.558908,5.3678927,14.829641,7.5426617,2.7280784,3.993945
2.824,7.3596225,5.354402,14.844658,7.505873,2.8880224,4.1173387
2.826,7.153384,5.352747,14.8482485,7.4651375,3.0464976,4.238706
2.828,6.938357,5.364213,14.841486,7.420177,3.2025673,4.3575435
2.83,6.712508,5.390074,14.825715,7.370663,3.3552203,4.473359
2.832,6.4736395,5.431423,14.802538,7.316242,3.5033977,4.5856996
2.834,6.219455,5.4891853,14.773655,7.2565475,3.6460228,4.694159
2.836,5.947895,5.564031,14.740576,7.191218,3.7820215,4.7983418
2.838,5.6572657,5.656329,14.704889,7.119913,3.9103184,4.897879
2.84,5.345575,5.766391,14.668306,7.0423217,4.0299287,4.9924064
2.842,5.011015,5.894168,14.6324215,6.958185,4.1399565,5.081594
2.844,4.652851,6.0390067,14.598473,6.867314,4.239627,5.165107
2.846,4.270329,6.2002506,14.56748,6.769577,4.3283014,5.242651
2.848,3.8627725,6.377019,14.540546,6.6649065,4.405499,5.3139334
2.85,3.4301615,6.567905,14.518387,6.553296,4.4708753,5.3786693
2.852,2.9726763,6.771475,14.501686,6.434782,4.5241895,5.4365845
2.854,2.4910245,6.9859924,14.490862,6.309431,4.565313,5.4874363
2.856,1.9861665,7.209478,14.485979,6.1773973,4.5943027,5.5310564
2.858,1.4593186,7.4399414,14.486988,6.0389113,4.6113386,5.56741
2.86,0.91217613,7.675354,14.493504,5.894312,4.616715,5.596612
2.862,0.34619045,7.91362,14.505023,5.743978,4.610815,5.618926
2.864,-0.23648024,8.1527815,14.520829,5.5884,4.5941525,5.6347704
2.866,-0.8336177,8.39083,14.540363,5.4281464,4.5673094,5.6447206
2.868,-1.4433093,8.625917,14.562561,5.2638383,4.530876,5.649437
2.87,-2.0631967,8.856129,14.586771,5.0961304,4.485505,5.64963
2.872,-2.6912174,9.080048,14.611828,4.925706,4.4319224,5.6460094
2.874,-3.325303,9.296225,14.636674,4.753256,4.370863,5.6392374
2.876,-3.9634767,9.503346,14.660216,4.5794625,4.303126,5.629885
2.878,-4.603979,9.700593,14.681094,4.404977,4.2295604,5.618393
2.88,-5.2453794,9.887428,14.698171,4.2304206,4.1511292,5.6050935
2.882,-5.886136,10.063526,14.710056,4.0563555,4.068914,5.5901914
2.884,-6.524917,10.228626,14.715832,3.8833048,3.9841368,5.5737686
2.886,-7.160595,10.382643,14.714149,3.711718,3.8981855,5.5558033
2.888,-7.79227,10.525805,14.703943,3.541994,3.812526,5.5362463
2.89,-8.419529,10.65853,14.684029,3.374475,3.7286303,5.515046
2.892,-9.041564,10.781222,14.653413,3.2094126,3.6479704,5.492164
2.894,-9.658485,10.8946495,14.611282,3.046989,3.5718188,5.467634
2.896,-10.270263,10.999584,14.556765,2.887308,3.5012586,5.4415617
2.898,-10.876782,11.097029,14.489169,2.730407,3.437071,5.414114
2.9,-11.478087,11.187792,14.407795,2.5762768,3.379757,5.385532
2.902,-12.074192,11.272824,14.312109,2.4249065,3.3295798,5.3561254
2.904,-12.665368,11.353197,14.201476,2.2763307,3.2866416,5.3262253
2.906,-13.251415,11.429773,14.075485,2.1305914,3.250907,5.296117
2.908,-13.83235,11.50336,13.933672,1.9878206,3.222271,5.266086
2.91,-14.407976,11.574908,13.775591,1.8482206,3.2006493,5.2363667
2.912,-14.977861,11.6449995,13.600749,1.712104,3.1860526,5.207128
2.914,-15.541512,11.714503,13.408868,1.5798515,3.1786323,5.178471
2.916,-16.098135,11.7839365,13.199589,1.4519458,3.178669,5.1504297
2.918,-16.647038,11.853883,12.972401,1.3288901,3.1865044,5.122946
2.92,-17.18722,11.924727,12.72702,1.2111661,3.2025354,5.095856
2.922,-17.717262,11.99693,12.46303,1.0991695,3.227139,5.0689325
2.924,-18.236042,12.070761,12.179698,0.99319756,3.2605524,5.04187
2.926,-18.742025,12.146453,11.876978,0.8933821,3.302767,5.0142565
2.928,-19.233498,12.224057,11.554432,0.7996526,3.3535428,4.985607
2.93,-19.708633,12.303604,11.211856,0.71176076,3.4123313,4.9553995
2.932,-20.165924,12.385227,10.849037,0.62927186,3.4782503,4.923084
2.934,-20.603704,12.468796,10.465574,0.55160046,3.5500832,4.888109
2.936,-21.020367,12.554161,10.061479,0.4780352,3.6263173,4.849965
2.938,-21.41461,12.641229,9.637026,0.4077735,3.7051873,4.8082047
2.94,-21.785065,12.72967,9.192549,0.339983,3.7847502,4.762431
2.942,-22.130331,12.81925,8.728626,0.27380252,3.8629756,4.7122946
2.944,-22.449018,12.909474,8.246031,0.20839727,3.9378037,4.6574664
2.946,-22.740276,12.999756,7.745845,0.14296997,4.0071645,4.5976133
2.948,-23.00335,13.089382,7.229525,0.076779366,4.069063,4.5323877
2.95,-23.237568,13.177662,6.6985645,0.009174943,4.1216207,4.4614325
2.952,-23.442446,13.263879,6.154911,-0.060397744,4.1630964,4.3843613
2.954,-23.618402,13.347235,5.601036,-0.13239956,4.19191,4.3007355
2.956,-23.765461,13.426932,5.039318,-0.20716453,4.206682,4.2100735
2.958,-23.883698,13.501787,4.472085,-0.28493094,4.2062654,4.1119347
2.96,-23.973394,13.570848,3.9019537,-0.36578918,4.1898456,4.0059223
2.962,-24.03502,13.632945,3.3315592,-0.44970345,4.1569266,3.89167
2.964,-24.06902,13.686884,2.7634068,-0.536525,4.107324,3.7689357
2.966,-24.076132,13.731833,2.200203,-0.6260164,4.041155,3.6376424
2.968,-24.057,13.766646,1.6446724,-0.7178643,3.9587872,3.4978952
2.97,-24.012825,13.790558,1.0994234,-0.81169194,3.8608532,3.3500261
2.972,-23.94431,13.802849,0.5669327,-0.907095,3.7482069,3.1945782
2.974,-23.85258,13.802762,0.049689293,-1.0036047,3.6219082,3.0322995
2.976,-23.738932,13.789873,-0.4499979,-1.1007209,3.4831562,2.8641412
2.978,-23.604116,13.763751,-0.9297867,-1.1979412,3.3332312,2.6912208
2.98,-23.44967,13.724353,-1.3876181,-1.2947711,3.1734507,2.5148182
2.982,-23.27646,13.671597,-1.8214922,-1.3907168,3.0051322,2.3362634
2.984,-23.08589,13.605695,-2.2294712,-1.4853022,2.8296092,2.1568828
2.986,-22.879417,13.527149,-2.609909,-1.5780585,2.6481977,1.9779599
2.988,-22.658245,13.436422,-2.96134,-1.668557,2.4621577,1.8006613
2.99,-22.423819,13.334157,-3.2825117,-1.7563826,2.272705,1.6260319
2.992,-22.177452,13.221102,-3.5722084,-1.8411481,2.0810342,1.454979
2.994,-21.920296,13.098057,-3.8299456,-1.9224986,1.8882697,1.2882302
2.996,-21.653667,12.965869,-4.054906,-2.0001068,1.6955197,1.1263052
2.998,-21.378939,12.825485,-4.2470617,-2.0736573,1.5038788,0.9695745
3,-21.09733,12.67786,-4.4060345,-2.1428785,1.3144228,0.81826603
3.002,-20.809908,12.523922,-4.5321455,-2.2075317,1.1282191,0.67248195
3.004,-20.51762,12.364534,-4.6258984,-2.2674344,0.94627684,0.53218865
3.006,-20.221525,12.20061,-4.6878433,-2.322452,0.7695612,0.39730084
3.008,-19.922676,12.032824,-4.718852,-2.3725011,0.59900475,0.26767826
3.01,-19.621992,11.861986,-4.719982,-2.4175525,0.43542853,0.14314795
3.012,-19.320156,11.688675,-4.6923494,-2.457617,0.2795656,0.023499846
3.014,-19.01791,11.513479,-4.6373644,-2.4927733,0.1320064,-0.09146124
3.016,-18.715984,11.337019,-4.556549,-2.5231612,-0.0067993104,-0.20193172
3.018,-18.414965,11.159775,-4.451479,-2.5489638,-0.13651064,-0.30809522
3.02,-18.115265,10.98218,-4.3237324,-2.5703924,-0.25687036,-0.41011775
3.022,-17.817442,10.804637,-4.1749935,-2.587662,-0.3677044,-0.5081089
3.024,-17.521923,10.627524,-4.0071096,-2.6010122,-0.46891287,-0.60213745
3.026,-17.229095,10.451204,-3.8217607,-2.6106617,-0.5604341,-0.69221383
3.028,-16.939037,10.276025,-3.6205587,-2.6168437,-0.64222383,-0.7783025
3.03,-16.651878,10.102277,-3.4053526,-2.6197722,-0.71424323,-0.86033493
3.032,-16.367977,9.930196,-3.1776166,-2.61962,-0.77643263,-0.93822324
3.034,-16.0874,9.760126,-2.9387746,-2.6165502,-0.82873535,-1.0118947
3.036,-15.810032,9.592355,-2.690611,-2.6106884,-0.87111706,-1.0812812
3.038,-15.536196,9.427156,-2.4346185,-2.6021495,-0.9035786,-1.1463321
3.04,-15.265951,9.264843,-2.1722908,-2.5910313,-0.9261419,-1.2070478
3.042,-14.999264,9.105772,-1.9047322,-2.5773969,-0.93883646,-1.2634444
3.044,-14.736122,8.950312,-1.6330805,-2.5612931,-0.9417508,-1.3156235
3.046,-14.476452,8.798815,-1.3585863,-2.5427365,-0.9350149,-1.3637128
3.048,-14.220194,8.651545,-1.0824556,-2.5217443,-0.9187986,-1.4078507
3.05,-13.967401,8.508915,-0.8058691,-2.498319,-0.8933436,-1.4481765
3.052,-13.717817,8.371111,-0.5298934,-2.472469,-0.8589281,-1.484824
3.054,-13.47165,8.238489,-0.25551605,-2.4441998,-0.8159038,-1.5179478
3.056,-13.22887,8.111464,0.016483307,-2.4135413,-0.7646601,-1.547728
3.058,-12.98935,7.990318,0.285079,-2.3805156,-0.7056022,-1.5743233
3.06,-12.752895,7.875186,0.5493903,-2.3452008,-0.63917834,-1.5979286
3.062,-12.519691,7.766366,0.8086958,-2.3076823,-0.565909,-1.6187338
3.064,-12.2894125,7.6641417,1.06216,-2.2680836,-0.4863159,-1.636915
3.066,-12.062143,7.5686207,1.30935,-2.226537,-0.4009561,-1.6526389
3.068,-11.8379,7.4801245,1.5499077,-2.1832066,-0.31041175,-1.6660659
3.07,-11.616745,7.398862,1.7833991,-2.1382592,-0.21528351,-1.6773202
3.072,-11.398598,7.3249664,2.009623,-2.0918758,-0.116183996,-1.6865015
3.074,-11.183523,7.2586346,2.2284417,-2.0442367,-0.013719857,-1.6936791
3.076,-10.971424,7.199897,2.4396472,-1.9955102,0.091519415,-1.6989012
3.078,-10.762386,7.148985,2.6430635,-1.9458642,0.19896394,-1.7022094
3.08,-10.556383,7.1059704,2.83854,-1.8954577,0.30807918,-1.7036383
3.082,-10.353558,7.0709996,3.026033,-1.8444066,0.41836524,-1.703227
3.084,-10.153874,7.0441704,3.2053938,-1.792834,0.5293884,-1.7010418
3.086,-9.95731,7.0255747,3.37648,-1.7408477,0.64075786,-1.6971753
3.088,-9.764151,7.0151887,3.5393171,-1.6885259,0.75214285,-1.6917554
3.09,-9.574247,7.012992,3.6936045,-1.6359483,0.8632557,-1.6849298
3.092,-9.387661,7.018757,3.8394463,-1.5831871,0.9738672,-1.6769071
3.094,-9.204542,7.032383,3.976675,-1.5303068,1.0837954,-1.6679302
3.096,-9.024848,7.053661,4.105335,-1.4773784,1.1928754,-1.6582867
3.098,-8.848551,7.0823298,4.225349,-1.4244691,1.3009803,-1.648269
3.1,-8.675623,7.117974,4.3365855,-1.3716637,1.4079871,-1.6381968
3.102,-8.506155,7.160262,4.4389677,-1.3190289,1.5137918,-1.6283929
3.104,-8.340215,7.208728,4.532601,-1.2666287,1.618304,-1.6191599
3.106,-8.1777,7.262892,4.6172867,-1.2145225,1.7214242,-1.610779
3.108,-8.018508,7.322125,4.693108,-1.1627512,1.8230847,-1.6034827
3.11,-7.8626394,7.3858657,4.759805,-1.1113467,1.9232188,-1.5974792
3.112,-7.7099833,7.453416,4.8173294,-1.0603229,2.0217662,-1.5929382
3.114,-7.5604568,7.524012,4.8656807,-1.0096767,2.118682,-1.5899752
3.116,-7.413906,7.596929,4.9047556,-0.9594096,2.2139378,-1.588677
3.118,-7.2701344,7.671496,4.934631,-0.9095228,2.307457,-1.5891167
3.12,-7.1291304,7.7469454,4.9553413,-0.86004156,2.399168,-1.5913603
3.122,-6.990687,7.822487,4.966939,-0.81099916,2.4889555,-1.5954622
3.124,-6.854714,7.897392,4.969595,-0.76245517,2.576661,-1.6014875
3.126,-6.721009,7.970766,4.9634466,-0.71451914,2.6620631,-1.6095192
3.128,-6.5893564,8.042021,4.948675,-0.66733724,2.7448852,-1.6196619
3.13,-6.4597263,8.110411,4.925579,-0.6210829,2.8247907,-1.6320345
3.132,-6.3318305,8.175276,4.8945136,-0.5759635,2.9014184,-1.6467447
3.134,-6.2054496,8.235985,4.8557143,-0.5322031,2.9743872,-1.6638999
3.136,-6.0804687,8.292056,4.809736,-0.49004483,3.0433145,-1.6835864
3.138,-5.9567103,8.3429785,4.756983,-0.44970894,3.107852,-1.7058425
3.14,-5.834111,8.388426,4.6979537,-0.41141367,3.1676908,-1.7306583
3.142,-5.7124534,8.428059,4.6331215,-0.37534034,3.2225938,-1.757946
3.144,-5.591602,8.461687,4.5630856,-0.34163535,3.2724164,-1.7875545
3.146,-5.4714465,8.489104,4.4882994,-0.31038928,3.3170729,-1.8192706
3.148,-5.3518596,8.510215,4.409546,-0.28165174,3.3565803,-1.8528161
3.15,-5.2325807,8.524965,4.3274107,-0.25542176,3.3910422,-1.8878697
3.152,-5.11353,8.533395,4.242265,-0.23165697,3.4206185,-1.924064
3.154,-4.9946547,8.535704,4.1547527,-0.21025479,3.4455118,-1.961033
3.156,-4.8758345,8.532015,4.0653934,-0.1911062,3.4659405,-1.9983958
3.158,-4.7570047,8.522625,3.9747097,-0.17405939,3.4821453,-2.0358012
3.16,-4.63794,8.507748,3.8831298,-0.15894926,3.494368,-2.0729342
3.162,-4.518774,8.487686,3.791019,-0.14561212,3.5028386,-2.1095238
3.164,-4.3992357,8.4628,3.698769,-0.133883,3.5078003,-2.1453366
3.166,-4.27934,8.43347,3.6065316,-0.12360895,3.509491,-2.1802156
3.168,-4.1589994,8.400034,3.5146651,-0.1146394,3.5081947,-2.214046
3.17,-4.0381455,8.36285,3.423392,-0.106856704,3.504209,-2.2467804
3.172,-3.916562,8.322188,3.3327155,-0.10016692,3.4978755,-2.278408
3.174,-3.7942874,8.278405,3.2427397,-0.09449947,3.4895434,-2.3089385
3.176,-3.6712406,8.2318325,3.153561,-0.089803696,3.4795802,-2.3384004
3.178,-3.5474584,8.182686,3.0649986,-0.08607972,3.468326,-2.3668237
3.18,-3.4228206,8.131196,2.9771085,-0.08332026,3.4561,-2.3942218
3.182,-3.2974393,8.077628,2.889614,-0.081545234,3.4431694,-2.4206197
3.184,-3.1711898,8.022047,2.802548,-0.08079314,3.4297428,-2.4460244
3.186,-3.0442116,7.964752,2.7158208,-0.081103206,3.415949,-2.4704583
3.188,-2.9163952,7.90574,2.6291935,-0.08252424,3.4018302,-2.493956
3.19,-2.7878227,7.84512,2.5426638,-0.08509666,3.387374,-2.516581
3.192,-2.658597,7.783015,2.4559288,-0.088867486,3.3725038,-2.5384102
3.194,-2.528854,7.7195,2.369021,-0.09389293,3.3571167,-2.5595481
3.196,-2.3985872,7.6545916,2.2818155,-0.10023451,3.3410878,-2.5801113
3.198,-2.2679203,7.588443,2.1941452,-0.10794163,3.3242824,-2.6002133
3.2,-2.1370149,7.521198,2.1060658,-0.11708659,3.3065968,-2.6199422
3.202,-2.006168,7.45291,2.0174298,-0.12773222,3.2879229,-2.6393628
3.204,-1.87524,7.38364,1.9282305,-0.13994288,3.2681887,-2.6584954
3.206,-1.7444229,7.3134704,1.8385288,-0.15376288,3.2473512,-2.6773152
3.208,-1.6140654,7.242544,1.7484299,-0.16924155,3.2254052,-2.6957343
3.21,-1.484063,7.171029,1.6580304,-0.18640167,3.2023473,-2.7136445
3.212,-1.3546879,7.099064,1.5674059,-0.20526731,3.1781564,-2.7308993
3.214,-1.2259064,7.0267463,1.4767419,-0.22583205,3.1527994,-2.7473316
3.216,-1.0979553,6.9542823,1.3862867,-0.24808204,3.1262398,-2.7627852
3.218,-0.97089463,6.881741,1.2962837,-0.2719922,3.098393,-2.7771406
3.22,-0.8447089,6.809161,1.2070855,-0.29754388,3.069145,-2.7903054
3.222,-0.71961546,6.736754,1.119024,-0.32470542,3.0383444,-2.8022587
3.224,-0.59569824,6.664676,1.0324056,-0.35343337,3.0058393,-2.8130014
3.226,-0.47280386,6.5927734,0.94757164,-0.38370004,2.97147,-2.8226035
3.228,-0.35128388,6.5212812,0.8648212,-0.41547048,2.9350722,-2.831174
3.23,-0.23087466,6.4500904,0.78462195,-0.4487282,2.8965292,-2.8388653
3.232,-0.11182889,6.379282,0.7072362,-0.48344535,2.855764,-2.8458388
3.234,0.0058627427,6.3087792,0.6330806,-0.5196074,2.8127062,-2.8522623
3.236,0.122172385,6.2385902,0.5624515,-0.55720764,2.7673526,-2.8582816
3.238,0.2343139,6.170761,0.49603665,-0.5962472,2.7197418,-2.864037
3.24,0.34434056,6.1035905,0.4335909,-0.6367149,2.6699352,-2.8696392
3.242,0.4520342,6.0371833,0.37536943,-0.67859864,2.6180515,-2.875164
3.244,0.55722237,5.9714713,0.32156587,-0.7218765,2.5642402,-2.8806722
3.246,0.6597557,5.9064546,0.27220345,-0.76650226,2.5086718,-2.886212
3.248,0.7594137,5.842254,0.2273618,-0.81240094,2.4515529,-2.8918138
3.25,0.85612,5.77883,0.18705976,-0.8594746,2.393097,-2.8974977
3.252,0.9496875,5.716346,0.15120411,-0.9075999,2.3335273,-2.9032485
3.254,1.0399668,5.654807,0.11967516,-0.9566116,2.2730868,-2.9090195
3.256,1.1268498,5.5943756,0.09235501,-1.0063304,2.2120168,-2.914758
3.258,1.2102784,5.5352097,0.06894791,-1.0565447,2.150576,-2.9203844
3.26,1.2900946,5.477436,0.04920864,-1.1070304,2.0890253,-2.925804
3.262,1.3662623,5.4211597,0.03300631,-1.1575496,2.0276203,-2.930903
3.264,1.4388531,5.3664546,0.020027876,-1.2078662,1.9666266,-2.935555
3.266,1.5078424,5.3134623,0.009935379,-1.256211,1.9081405,-2.9396868
3.268,1.5733442,5.2623515,0.00250113,-1.3031636,1.8514647,-2.9431975
3.27,1.63536,5.213144,-0.0025724173,-1.348295,1.7970905,-2.9460254
3.272,1.6940062,5.16597,-0.0055196285,-1.391193,1.7455018,-2.9481344
3.274,1.7493641,5.1208477,-0.006700158,-1.4314945,1.6971284,-2.9495387
3.276,1.801622,5.077705,-0.006259322,-1.4689174,1.6522983,-2.9502776
3.278,1.8507739,5.036663,-0.0045160055,-1.503277,1.611224,-2.9504342
3.28,1.8970075,4.997717,-0.0016527176,-1.5344822,1.5739875,-2.9501052
3.282,1.9405155,4.96074,0.0022323132,-1.5625639,1.540558,-2.9493928
3.284,1.9814347,4.9257674,0.0069117546,-1.5876261,1.5107744,-2.9483922
3.286,2.0198429,4.892647,0.012095451,-1.6098591,1.4843996,-2.9471967
3.288,2.056092,4.8613653,0.01789403,-1.6294985,1.4611546,-2.9458869
